time,acc_x,acc_y,acc_z,gyro_pitch,gyro_yaw,gyro_roll,vibration_status,label,person_id
2025-01-08 14:00:17.122636,5,3,9,-2540,7730,1259,0,0,0
2025-01-08 14:00:17.123878,5,3,9,-2540,7730,1259,0,0,0
2025-01-08 14:00:17.125141,3,2,6,-2543,7757,1242,0,0,0
2025-01-08 14:00:17.126386,3,2,6,-2543,7757,1242,0,0,0
2025-01-08 14:00:17.127642,3,2,6,-2543,7757,1242,0,0,0
2025-01-08 14:00:17.128894,3,3,6,-2496,7741,1221,0,0,0
2025-01-08 14:00:17.130146,3,3,6,-2496,7741,1221,0,0,0
2025-01-08 14:00:17.131409,3,3,6,-2496,7741,1221,0,0,0
2025-01-08 14:00:17.132660,4,2,8,-2511,7719,1222,0,0,0
2025-01-08 14:00:17.133923,4,2,8,-2511,7719,1222,0,0,0
2025-01-08 14:00:17.135182,4,2,8,-2511,7719,1222,0,0,0
2025-01-08 14:00:17.136434,4,2,8,-2511,7719,1222,0,0,0
2025-01-08 14:00:17.137696,3,4,4,-2501,7750,1227,0,0,0
2025-01-08 14:00:17.138957,3,4,4,-2501,7750,1227,0,0,0
2025-01-08 14:00:17.140218,3,4,4,-2501,7750,1227,0,0,0
2025-01-08 14:00:17.141469,0,2,6,-2504,7728,1215,0,0,0
2025-01-08 14:00:17.142723,0,2,6,-2504,7728,1215,0,0,0
2025-01-08 14:00:17.143975,0,2,6,-2504,7728,1215,0,0,0
2025-01-08 14:00:17.145227,1,1,6,-2507,7744,1244,0,0,0
2025-01-08 14:00:17.146491,1,1,6,-2507,7744,1244,0,0,0
2025-01-08 14:00:17.147752,1,1,6,-2507,7744,1244,0,0,0
2025-01-08 14:00:17.149019,4,1,7,-2515,7740,1249,0,0,0
2025-01-08 14:00:17.150269,4,1,7,-2515,7740,1249,0,0,0
2025-01-08 14:00:17.151533,4,1,7,-2515,7740,1249,0,0,0
2025-01-08 14:00:17.152782,2,4,6,-2518,7743,1235,0,0,0
2025-01-08 14:00:17.154045,2,4,6,-2518,7743,1235,0,0,0
2025-01-08 14:00:17.155304,2,4,6,-2518,7743,1235,0,0,0
2025-01-08 14:00:17.156553,6,0,6,-2487,7770,1247,0,0,0
2025-01-08 14:00:17.157806,6,0,6,-2487,7770,1247,0,0,0
2025-01-08 14:00:17.159059,6,0,6,-2487,7770,1247,0,0,0
2025-01-08 14:00:17.160310,6,0,6,-2487,7770,1247,0,0,0
2025-01-08 14:00:17.161572,2,1,4,-2501,7717,1275,0,0,0
2025-01-08 14:00:17.162832,2,1,4,-2501,7717,1275,0,0,0
2025-01-08 14:00:17.164093,2,1,4,-2501,7717,1275,0,0,0
2025-01-08 14:00:17.165344,2,0,11,-2484,7731,1288,0,0,0
2025-01-08 14:00:17.166597,2,0,11,-2484,7731,1288,0,0,0
2025-01-08 14:00:17.167852,2,0,11,-2484,7731,1288,0,0,0
2025-01-08 14:00:17.169115,2,0,8,-2493,7712,1303,0,0,0
2025-01-08 14:00:17.170375,2,0,8,-2493,7712,1303,0,0,0
2025-01-08 14:00:17.171635,2,0,8,-2493,7712,1303,0,0,0
2025-01-08 14:00:17.172887,3,1,7,-2472,7706,1343,0,0,0
2025-01-08 14:00:17.174140,3,1,7,-2472,7706,1343,0,0,0
2025-01-08 14:00:17.175407,3,1,7,-2472,7706,1343,0,0,0
2025-01-08 14:00:17.176660,1,2,7,-2489,7732,1329,0,0,0
2025-01-08 14:00:17.177921,1,2,7,-2489,7732,1329,0,0,0
2025-01-08 14:00:17.179181,1,2,7,-2489,7732,1329,0,0,0
2025-01-08 14:00:17.180432,2,0,8,-2480,7721,1369,0,0,0
2025-01-08 14:00:17.181694,2,0,8,-2480,7721,1369,0,0,0
2025-01-08 14:00:17.182954,2,0,8,-2480,7721,1369,0,0,0
2025-01-08 14:00:17.184216,2,0,8,-2480,7721,1369,0,0,0
2025-01-08 14:00:17.185475,3,1,4,-2467,7713,1368,0,0,0
2025-01-08 14:00:17.186734,3,1,4,-2467,7713,1368,0,0,0
2025-01-08 14:00:17.187989,3,1,4,-2467,7713,1368,0,0,0
2025-01-08 14:00:17.189250,2,3,6,-2470,7736,1370,0,0,0
2025-01-08 14:00:17.190499,2,3,6,-2470,7736,1370,0,0,0
2025-01-08 14:00:17.191761,2,3,6,-2470,7736,1370,0,0,0
2025-01-08 14:00:17.193020,0,3,6,-2505,7717,1382,0,0,0
2025-01-08 14:00:17.194281,0,3,6,-2505,7717,1382,0,0,0
2025-01-08 14:00:17.195541,0,3,6,-2505,7717,1382,0,0,0
2025-01-08 14:00:17.196791,0,3,6,-2472,7716,1349,0,0,0
2025-01-08 14:00:17.198054,0,3,6,-2472,7716,1349,0,0,0
2025-01-08 14:00:17.199315,0,3,6,-2472,7716,1349,0,0,0
2025-01-08 14:00:17.200566,2,0,5,-2464,7745,1355,0,0,0
2025-01-08 14:00:17.201828,2,0,5,-2464,7745,1355,0,0,0
2025-01-08 14:00:17.203087,2,0,5,-2464,7745,1355,0,0,0
2025-01-08 14:00:17.204338,2,0,5,-2464,7745,1355,0,0,0
2025-01-08 14:00:17.205599,3,4,8,-2453,7743,1376,0,0,0
2025-01-08 14:00:17.206860,3,4,8,-2453,7743,1376,0,0,0
2025-01-08 14:00:17.208121,3,4,8,-2453,7743,1376,0,0,0
2025-01-08 14:00:17.209395,2,1,8,-2487,7723,1331,0,0,0
2025-01-08 14:00:17.210655,2,1,8,-2487,7723,1331,0,0,0
2025-01-08 14:00:17.211910,2,1,8,-2487,7723,1331,0,0,0
2025-01-08 14:00:17.213163,4,2,5,-2449,7744,1330,0,0,0
2025-01-08 14:00:17.214425,4,2,5,-2449,7744,1330,0,0,0
2025-01-08 14:00:17.215685,4,2,5,-2449,7744,1330,0,0,0
2025-01-08 14:00:17.216937,4,3,5,-2492,7732,1331,0,0,0
2025-01-08 14:00:17.218200,4,3,5,-2492,7732,1331,0,0,0
2025-01-08 14:00:17.219459,4,3,5,-2492,7732,1331,0,0,0
2025-01-08 14:00:17.220715,3,2,6,-2470,7726,1311,0,0,0
2025-01-08 14:00:17.221976,3,2,6,-2470,7726,1311,0,0,0
2025-01-08 14:00:17.223237,3,2,6,-2470,7726,1311,0,0,0
2025-01-08 14:00:17.224488,4,2,7,-2490,7740,1317,0,0,0
2025-01-08 14:00:17.225741,4,2,7,-2490,7740,1317,0,0,0
2025-01-08 14:00:17.227005,4,2,7,-2490,7740,1317,0,0,0
2025-01-08 14:00:17.228265,4,2,7,-2490,7740,1317,0,0,0
2025-01-08 14:00:17.229524,3,2,6,-2480,7718,1291,0,0,0
2025-01-08 14:00:17.230784,3,2,6,-2480,7718,1291,0,0,0
2025-01-08 14:00:17.232045,3,2,6,-2480,7718,1291,0,0,0
2025-01-08 14:00:17.233303,4,2,6,-2512,7707,1305,0,0,0
2025-01-08 14:00:17.234564,4,2,6,-2512,7707,1305,0,0,0
2025-01-08 14:00:17.235815,4,2,6,-2512,7707,1305,0,0,0
2025-01-08 14:00:17.237075,2,2,5,-2480,7731,1284,0,0,0
2025-01-08 14:00:17.238327,2,2,5,-2480,7731,1284,0,0,0
2025-01-08 14:00:17.239592,2,2,5,-2480,7731,1284,0,0,0
2025-01-08 14:00:17.240843,3,4,2,-2493,7715,1260,0,0,0
2025-01-08 14:00:17.242109,3,4,2,-2493,7715,1260,0,0,0
2025-01-08 14:00:17.243368,3,4,2,-2493,7715,1260,0,0,0
2025-01-08 14:00:17.244620,4,3,5,-2513,7726,1246,0,0,0
2025-01-08 14:00:17.245882,4,3,5,-2513,7726,1246,0,0,0
2025-01-08 14:00:17.247142,4,3,5,-2513,7726,1246,0,0,0
2025-01-08 14:00:17.248394,4,3,5,-2513,7726,1246,0,0,0
2025-01-08 14:00:17.249630,2,2,6,-2527,7757,1241,0,0,0
2025-01-08 14:00:17.250892,2,2,6,-2527,7757,1241,0,0,0
2025-01-08 14:00:17.252154,2,2,6,-2527,7757,1241,0,0,0
2025-01-08 14:00:17.253414,3,3,5,-2510,7742,1228,0,0,0
2025-01-08 14:00:17.254674,3,3,5,-2510,7742,1228,0,0,0
2025-01-08 14:00:17.255929,3,3,5,-2510,7742,1228,0,0,0
2025-01-08 14:00:17.257181,2,3,6,-2521,7730,1240,0,0,0
2025-01-08 14:00:17.258433,2,3,6,-2521,7730,1240,0,0,0
2025-01-08 14:00:17.259686,2,3,6,-2521,7730,1240,0,0,0
2025-01-08 14:00:17.260939,1,2,4,-2494,7738,1252,0,0,0
2025-01-08 14:00:17.262200,1,2,4,-2494,7738,1252,0,0,0
2025-01-08 14:00:17.263452,1,2,4,-2494,7738,1252,0,0,0
2025-01-08 14:00:17.264705,3,4,5,-2502,7733,1239,0,0,0
2025-01-08 14:00:17.265966,3,4,5,-2502,7733,1239,0,0,0
2025-01-08 14:00:17.267225,3,4,5,-2502,7733,1239,0,0,0
2025-01-08 14:00:17.268477,1,2,6,-2531,7738,1242,0,0,0
2025-01-08 14:00:17.269738,1,2,6,-2531,7738,1242,0,0,0
2025-01-08 14:00:17.270997,1,2,6,-2531,7738,1242,0,0,0
2025-01-08 14:00:17.272254,1,2,6,-2531,7738,1242,0,0,0
2025-01-08 14:00:17.273507,2,3,3,-2523,7720,1241,0,0,0
2025-01-08 14:00:17.274772,2,3,3,-2523,7720,1241,0,0,0
2025-01-08 14:00:17.276030,2,3,3,-2523,7720,1241,0,0,0
2025-01-08 14:00:17.277283,3,2,5,-2517,7725,1241,0,0,0
2025-01-08 14:00:17.278545,3,2,5,-2517,7725,1241,0,0,0
2025-01-08 14:00:17.279805,3,2,5,-2517,7725,1241,0,0,0
2025-01-08 14:00:17.281066,2,3,8,-2532,7743,1264,0,0,0
2025-01-08 14:00:17.282326,2,3,8,-2532,7743,1264,0,0,0
2025-01-08 14:00:17.283586,2,3,8,-2532,7743,1264,0,0,0
2025-01-08 14:00:17.284838,3,3,8,-2504,7726,1249,0,0,0
2025-01-08 14:00:17.286101,3,3,8,-2504,7726,1249,0,0,0
2025-01-08 14:00:17.287360,3,3,8,-2504,7726,1249,0,0,0
2025-01-08 14:00:17.288611,3,1,7,-2499,7735,1264,0,0,0
2025-01-08 14:00:17.289881,3,1,7,-2499,7735,1264,0,0,0
2025-01-08 14:00:17.291141,3,1,7,-2499,7735,1264,0,0,0
2025-01-08 14:00:17.292394,3,1,7,-2499,7735,1264,0,0,0
2025-01-08 14:00:17.293656,0,1,7,-2477,7735,1274,0,0,0
2025-01-08 14:00:17.294914,0,1,7,-2477,7735,1274,0,0,0
2025-01-08 14:00:17.296173,0,1,7,-2477,7735,1274,0,0,0
2025-01-08 14:00:17.297434,1,1,6,-2509,7738,1288,0,0,0
2025-01-08 14:00:17.298693,1,1,6,-2509,7738,1288,0,0,0
2025-01-08 14:00:17.299954,1,1,6,-2509,7738,1288,0,0,0
2025-01-08 14:00:17.301215,1,1,6,-2486,7726,1307,0,0,0
2025-01-08 14:00:17.302474,1,1,6,-2486,7726,1307,0,0,0
2025-01-08 14:00:17.303733,1,1,6,-2486,7726,1307,0,0,0
2025-01-08 14:00:17.304994,1,4,5,-2503,7735,1314,0,0,0
2025-01-08 14:00:17.306260,1,4,5,-2503,7735,1314,0,0,0
2025-01-08 14:00:17.307513,1,4,5,-2503,7735,1314,0,0,0
2025-01-08 14:00:17.308767,3,0,8,-2501,7745,1323,0,0,0
2025-01-08 14:00:17.310022,3,0,8,-2501,7745,1323,0,0,0
2025-01-08 14:00:17.311283,3,0,8,-2501,7745,1323,0,0,0
2025-01-08 14:00:17.312536,0,1,6,-2486,7735,1296,0,0,0
2025-01-08 14:00:17.313797,0,1,6,-2486,7735,1296,0,0,0
2025-01-08 14:00:17.315058,0,1,6,-2486,7735,1296,0,0,0
2025-01-08 14:00:17.316316,0,1,6,-2486,7735,1296,0,0,0
2025-01-08 14:00:17.317575,3,2,7,-2478,7715,1333,0,0,0
2025-01-08 14:00:17.318836,3,2,7,-2478,7715,1333,0,0,0
2025-01-08 14:00:17.320094,3,2,7,-2478,7715,1333,0,0,0
2025-01-08 14:00:17.321353,4,1,8,-2514,7755,1332,0,0,0
2025-01-08 14:00:17.322614,4,1,8,-2514,7755,1332,0,0,0
2025-01-08 14:00:17.323643,4,1,8,-2514,7755,1332,0,0,0
2025-01-08 14:00:17.324899,4,1,5,-2483,7726,1333,0,0,0
2025-01-08 14:00:17.326160,4,1,5,-2483,7726,1333,0,0,0
2025-01-08 14:00:17.327418,4,1,5,-2483,7726,1333,0,0,0
2025-01-08 14:00:17.328670,2,1,7,-2453,7708,1383,0,0,0
2025-01-08 14:00:17.329931,2,1,7,-2453,7708,1383,0,0,0
2025-01-08 14:00:17.331191,2,1,7,-2453,7708,1383,0,0,0
2025-01-08 14:00:17.332509,2,3,7,-2500,7714,1355,0,0,0
2025-01-08 14:00:17.333770,2,3,7,-2500,7714,1355,0,0,0
2025-01-08 14:00:17.335028,2,3,7,-2500,7714,1355,0,0,0
2025-01-08 14:00:17.336285,2,3,7,-2500,7714,1355,0,0,0
2025-01-08 14:00:17.337545,3,2,8,-2498,7709,1338,0,0,0
2025-01-08 14:00:17.338805,3,2,8,-2498,7709,1338,0,0,0
2025-01-08 14:00:17.340071,3,2,8,-2498,7709,1338,0,0,0
2025-01-08 14:00:17.341331,1,3,4,-2506,7707,1319,0,0,0
2025-01-08 14:00:17.342593,1,3,4,-2506,7707,1319,0,0,0
2025-01-08 14:00:17.343852,1,3,4,-2506,7707,1319,0,0,0
2025-01-08 14:00:17.345113,4,3,4,-2494,7716,1309,0,0,0
2025-01-08 14:00:17.346377,4,3,4,-2494,7716,1309,0,0,0
2025-01-08 14:00:17.347638,4,3,4,-2494,7716,1309,0,0,0
2025-01-08 14:00:17.348892,4,4,8,-2499,7709,1321,0,0,0
2025-01-08 14:00:17.350154,4,4,8,-2499,7709,1321,0,0,0
2025-01-08 14:00:17.351421,4,4,8,-2499,7709,1321,0,0,0
2025-01-08 14:00:17.352675,3,3,6,-2506,7749,1284,0,0,0
2025-01-08 14:00:17.353936,3,3,6,-2506,7749,1284,0,0,0
2025-01-08 14:00:17.355195,3,3,6,-2506,7749,1284,0,0,0
2025-01-08 14:00:17.356449,2,4,5,-2496,7738,1249,0,0,0
2025-01-08 14:00:17.357708,2,4,5,-2496,7738,1249,0,0,0
2025-01-08 14:00:17.358963,2,4,5,-2496,7738,1249,0,0,0
2025-01-08 14:00:17.360225,2,4,5,-2496,7738,1249,0,0,0
2025-01-08 14:00:17.361492,3,5,7,-2516,7719,1285,0,0,0
2025-01-08 14:00:17.362752,3,5,7,-2516,7719,1285,0,0,0
2025-01-08 14:00:17.364013,3,5,7,-2516,7719,1285,0,0,0
2025-01-08 14:00:17.365273,3,3,6,-2500,7740,1262,0,0,0
2025-01-08 14:00:17.366532,3,3,6,-2500,7740,1262,0,0,0
2025-01-08 14:00:17.367823,3,3,6,-2500,7740,1262,0,0,0
2025-01-08 14:00:17.369056,4,2,5,-2514,7733,1245,0,0,0
2025-01-08 14:00:17.370315,4,2,5,-2514,7733,1245,0,0,0
2025-01-08 14:00:17.371572,4,2,5,-2514,7733,1245,0,0,0
2025-01-08 14:00:17.372764,2,3,6,-2494,7713,1219,0,0,0
2025-01-08 14:00:17.374018,2,3,6,-2494,7713,1219,0,0,0
2025-01-08 14:00:17.375268,2,3,6,-2494,7713,1219,0,0,0
2025-01-08 14:00:17.376644,3,0,4,-2518,7735,1230,0,0,0
2025-01-08 14:00:17.377901,3,0,4,-2518,7735,1230,0,0,0
2025-01-08 14:00:17.379169,3,0,4,-2518,7735,1230,0,0,0
2025-01-08 14:00:17.380429,3,0,4,-2518,7735,1230,0,0,0
2025-01-08 14:00:17.381695,1,0,6,-2522,7737,1206,0,0,0
2025-01-08 14:00:17.382882,1,0,6,-2522,7737,1206,0,0,0
2025-01-08 14:00:17.384142,1,0,6,-2522,7737,1206,0,0,0
2025-01-08 14:00:17.385409,1,2,7,-2518,7731,1225,0,0,0
2025-01-08 14:00:17.386663,1,2,7,-2518,7731,1225,0,0,0
2025-01-08 14:00:17.387918,1,2,7,-2518,7731,1225,0,0,0
2025-01-08 14:00:17.389173,4,2,5,-2495,7747,1210,0,0,0
2025-01-08 14:00:17.390432,4,2,5,-2495,7747,1210,0,0,0
2025-01-08 14:00:17.391682,4,2,5,-2495,7747,1210,0,0,0
2025-01-08 14:00:17.392937,4,0,5,-2546,7734,1216,0,0,0
2025-01-08 14:00:17.394200,4,0,5,-2546,7734,1216,0,0,0
2025-01-08 14:00:17.395459,4,0,5,-2546,7734,1216,0,0,0
2025-01-08 14:00:17.396713,0,1,7,-2530,7734,1214,0,0,0
2025-01-08 14:00:17.397974,0,1,7,-2530,7734,1214,0,0,0
2025-01-08 14:00:17.399236,0,1,7,-2530,7734,1214,0,0,0
2025-01-08 14:00:17.400535,2,0,8,-2523,7728,1223,0,0,0
2025-01-08 14:00:17.401797,2,0,8,-2523,7728,1223,0,0,0
2025-01-08 14:00:17.403058,2,0,8,-2523,7728,1223,0,0,0
2025-01-08 14:00:17.404323,2,0,8,-2523,7728,1223,0,0,0
2025-01-08 14:00:17.405584,0,2,6,-2523,7749,1222,0,0,0
2025-01-08 14:00:17.406843,0,2,6,-2523,7749,1222,0,0,0
2025-01-08 14:00:17.408104,0,2,6,-2523,7749,1222,0,0,0
2025-01-08 14:00:17.409364,2,0,3,-2505,7707,1250,0,0,0
2025-01-08 14:00:17.410624,2,0,3,-2505,7707,1250,0,0,0
2025-01-08 14:00:17.411884,2,0,3,-2505,7707,1250,0,0,0
2025-01-08 14:00:17.413144,2,0,6,-2512,7728,1298,0,0,0
2025-01-08 14:00:17.414404,2,0,6,-2512,7728,1298,0,0,0
2025-01-08 14:00:17.415664,2,0,6,-2512,7728,1298,0,0,0
2025-01-08 14:00:17.416918,1,2,6,-2493,7701,1283,0,0,0
2025-01-08 14:00:17.418180,1,2,6,-2493,7701,1283,0,0,0
2025-01-08 14:00:17.419438,1,2,6,-2493,7701,1283,0,0,0
2025-01-08 14:00:17.420744,1,-1,7,-2495,7743,1292,0,0,0
2025-01-08 14:00:17.421996,1,-1,7,-2495,7743,1292,0,0,0
2025-01-08 14:00:17.423247,1,-1,7,-2495,7743,1292,0,0,0
2025-01-08 14:00:17.424515,1,-1,10,-2479,7749,1293,0,0,0
2025-01-08 14:00:17.425774,1,-1,10,-2479,7749,1293,0,0,0
2025-01-08 14:00:17.427032,1,-1,10,-2479,7749,1293,0,0,0
2025-01-08 14:00:17.428290,1,-1,10,-2479,7749,1293,0,0,0
2025-01-08 14:00:17.429551,0,1,6,-2475,7705,1315,0,0,0
2025-01-08 14:00:17.430815,0,1,6,-2475,7705,1315,0,0,0
2025-01-08 14:00:17.432071,0,1,6,-2475,7705,1315,0,0,0
2025-01-08 14:00:17.433333,2,0,8,-2486,7730,1330,0,0,0
2025-01-08 14:00:17.434603,2,0,8,-2486,7730,1330,0,0,0
2025-01-08 14:00:17.435873,2,0,8,-2486,7730,1330,0,0,0
2025-01-08 14:00:17.437128,0,0,7,-2499,7720,1334,0,0,0
2025-01-08 14:00:17.438393,0,0,7,-2499,7720,1334,0,0,0
2025-01-08 14:00:17.439658,0,0,7,-2499,7720,1334,0,0,0
2025-01-08 14:00:17.440913,0,0,8,-2482,7712,1354,0,0,0
2025-01-08 14:00:17.442170,0,0,8,-2482,7712,1354,0,0,0
2025-01-08 14:00:17.443430,0,0,8,-2482,7712,1354,0,0,0
2025-01-08 14:00:17.444685,0,1,5,-2463,7734,1374,0,0,0
2025-01-08 14:00:17.445947,0,1,5,-2463,7734,1374,0,0,0
2025-01-08 14:00:17.447209,0,1,5,-2463,7734,1374,0,0,0
2025-01-08 14:00:17.448560,1,0,7,-2470,7702,1377,0,0,0
2025-01-08 14:00:17.449677,1,0,7,-2470,7702,1377,0,0,0
2025-01-08 14:00:17.450939,1,0,7,-2470,7702,1377,0,0,0
2025-01-08 14:00:17.452209,1,0,7,-2470,7702,1377,0,0,0
2025-01-08 14:00:17.453477,3,2,7,-2510,7717,1362,0,0,0
2025-01-08 14:00:17.454736,3,2,7,-2510,7717,1362,0,0,0
2025-01-08 14:00:17.456004,3,2,7,-2510,7717,1362,0,0,0
2025-01-08 14:00:17.457263,0,2,8,-2495,7727,1362,0,0,0
2025-01-08 14:00:17.458532,0,2,8,-2495,7727,1362,0,0,0
2025-01-08 14:00:17.459807,0,2,8,-2495,7727,1362,0,0,0
2025-01-08 14:00:17.461067,3,2,6,-2484,7734,1367,0,0,0
2025-01-08 14:00:17.462333,3,2,6,-2484,7734,1367,0,0,0
2025-01-08 14:00:17.463598,3,2,6,-2484,7734,1367,0,0,0
2025-01-08 14:00:17.464859,2,4,6,-2475,7721,1362,0,0,0
2025-01-08 14:00:17.466125,2,4,6,-2475,7721,1362,0,0,0
2025-01-08 14:00:17.467397,2,4,6,-2475,7721,1362,0,0,0
2025-01-08 14:00:17.468668,2,5,6,-2488,7711,1374,0,0,0
2025-01-08 14:00:17.469930,2,5,6,-2488,7711,1374,0,0,0
2025-01-08 14:00:17.471206,2,5,6,-2488,7711,1374,0,0,0
2025-01-08 14:00:17.472469,2,5,6,-2488,7711,1374,0,0,0
2025-01-08 14:00:17.473733,3,2,4,-2517,7740,1336,0,0,0
2025-01-08 14:00:17.474996,3,2,4,-2517,7740,1336,0,0,0
2025-01-08 14:00:17.476266,3,2,4,-2517,7740,1336,0,0,0
2025-01-08 14:00:17.477534,1,2,8,-2482,7719,1342,0,0,0
2025-01-08 14:00:17.478805,1,2,8,-2482,7719,1342,0,0,0
2025-01-08 14:00:17.480066,1,2,8,-2482,7719,1342,0,0,0
2025-01-08 14:00:17.481330,2,2,7,-2491,7722,1322,0,0,0
2025-01-08 14:00:17.482602,2,2,7,-2491,7722,1322,0,0,0
2025-01-08 14:00:17.483875,2,2,7,-2491,7722,1322,0,0,0
2025-01-08 14:00:17.485140,4,5,5,-2500,7736,1311,0,0,0
2025-01-08 14:00:17.486401,4,5,5,-2500,7736,1311,0,0,0
2025-01-08 14:00:17.487661,4,5,5,-2500,7736,1311,0,0,0
2025-01-08 14:00:17.488934,5,5,6,-2496,7743,1270,0,0,0
2025-01-08 14:00:17.490212,5,5,6,-2496,7743,1270,0,0,0
2025-01-08 14:00:17.491485,5,5,6,-2496,7743,1270,0,0,0
2025-01-08 14:00:17.492938,2,3,6,-2516,7760,1276,0,0,0
2025-01-08 14:00:17.494209,2,3,6,-2516,7760,1276,0,0,0
2025-01-08 14:00:17.495480,2,3,6,-2516,7760,1276,0,0,0
2025-01-08 14:00:17.496748,4,5,5,-2491,7750,1274,0,0,0
2025-01-08 14:00:17.497837,4,5,5,-2491,7750,1274,0,0,0
2025-01-08 14:00:17.499099,4,5,5,-2491,7750,1274,0,0,0
2025-01-08 14:00:17.500370,4,5,5,-2491,7750,1274,0,0,0
2025-01-08 14:00:17.501628,3,2,5,-2486,7722,1246,0,0,0
2025-01-08 14:00:17.502890,3,2,5,-2486,7722,1246,0,0,0
2025-01-08 14:00:17.504154,3,2,5,-2486,7722,1246,0,0,0
2025-01-08 14:00:17.505421,3,6,6,-2492,7755,1227,0,0,0
2025-01-08 14:00:17.506686,3,6,6,-2492,7755,1227,0,0,0
2025-01-08 14:00:17.507751,3,6,6,-2492,7755,1227,0,0,0
2025-01-08 14:00:17.509025,0,5,8,-2509,7752,1243,0,0,0
2025-01-08 14:00:17.510306,0,5,8,-2509,7752,1243,0,0,0
2025-01-08 14:00:17.511490,0,5,8,-2509,7752,1243,0,0,0
2025-01-08 14:00:17.512760,3,3,4,-2529,7760,1245,0,0,0
2025-01-08 14:00:17.514034,3,3,4,-2529,7760,1245,0,0,0
2025-01-08 14:00:17.515315,3,3,4,-2529,7760,1245,0,0,0
2025-01-08 14:00:17.516744,3,5,7,-2527,7717,1255,0,0,0
2025-01-08 14:00:17.518005,3,5,7,-2527,7717,1255,0,0,0
2025-01-08 14:00:17.519271,3,5,7,-2527,7717,1255,0,0,0
2025-01-08 14:00:17.520802,3,5,7,-2527,7717,1255,0,0,0
2025-01-08 14:00:17.522069,4,3,6,-2534,7712,1190,0,0,0
2025-01-08 14:00:17.523330,4,3,6,-2534,7712,1190,0,0,0
2025-01-08 14:00:17.524711,3,2,7,-2539,7715,1197,0,0,0
2025-01-08 14:00:17.526000,3,2,7,-2539,7715,1197,0,0,0
2025-01-08 14:00:17.527274,3,2,7,-2539,7715,1197,0,0,0
2025-01-08 14:00:17.528634,3,2,7,-2539,7715,1197,0,0,0
2025-01-08 14:00:17.529900,2,3,8,-2507,7733,1194,0,0,0
2025-01-08 14:00:17.531160,2,3,8,-2507,7733,1194,0,0,0
2025-01-08 14:00:17.532415,2,3,8,-2507,7733,1194,0,0,0
2025-01-08 14:00:17.533677,0,0,8,-2508,7715,1216,0,0,0
2025-01-08 14:00:17.534935,0,0,8,-2508,7715,1216,0,0,0
2025-01-08 14:00:17.536228,0,0,8,-2508,7715,1216,0,0,0
2025-01-08 14:00:17.537459,0,0,6,-2515,7722,1264,0,0,0
2025-01-08 14:00:17.538712,0,0,6,-2515,7722,1264,0,0,0
2025-01-08 14:00:17.539962,0,0,6,-2515,7722,1264,0,0,0
2025-01-08 14:00:17.541081,1,2,4,-2501,7747,1252,0,0,0
2025-01-08 14:00:17.542336,1,2,4,-2501,7747,1252,0,0,0
2025-01-08 14:00:17.543591,1,2,4,-2501,7747,1252,0,0,0
2025-01-08 14:00:17.544845,1,1,7,-2492,7717,1242,0,0,0
2025-01-08 14:00:17.546101,1,1,7,-2492,7717,1242,0,0,0
2025-01-08 14:00:17.547352,1,1,7,-2492,7717,1242,0,0,0
2025-01-08 14:00:17.548674,2,1,6,-2489,7723,1240,0,0,0
2025-01-08 14:00:17.549934,2,1,6,-2489,7723,1240,0,0,0
2025-01-08 14:00:17.551185,2,1,6,-2489,7723,1240,0,0,0
2025-01-08 14:00:17.552441,2,1,6,-2489,7723,1240,0,0,0
2025-01-08 14:00:17.553692,2,2,6,-2520,7731,1253,0,0,0
2025-01-08 14:00:17.554945,2,2,6,-2520,7731,1253,0,0,0
2025-01-08 14:00:17.556198,2,2,6,-2520,7731,1253,0,0,0
2025-01-08 14:00:17.557467,1,0,6,-2474,7718,1259,0,0,0
2025-01-08 14:00:17.558720,1,0,6,-2474,7718,1259,0,0,0
2025-01-08 14:00:17.559977,1,0,6,-2474,7718,1259,0,0,0
2025-01-08 14:00:17.561233,2,1,9,-2487,7728,1280,0,0,0
2025-01-08 14:00:17.562486,2,1,9,-2487,7728,1280,0,0,0
2025-01-08 14:00:17.563739,2,1,9,-2487,7728,1280,0,0,0
2025-01-08 14:00:17.564752,4,1,5,-2518,7739,1258,0,0,0
2025-01-08 14:00:17.566013,4,1,5,-2518,7739,1258,0,0,0
2025-01-08 14:00:17.567268,4,1,5,-2518,7739,1258,0,0,0
2025-01-08 14:00:17.568523,3,0,6,-2482,7736,1288,0,0,0
2025-01-08 14:00:17.569782,3,0,6,-2482,7736,1288,0,0,0
2025-01-08 14:00:17.571039,3,0,6,-2482,7736,1288,0,0,0
2025-01-08 14:00:17.572305,3,0,6,-2482,7736,1288,0,0,0
2025-01-08 14:00:17.573573,3,0,9,-2489,7730,1298,0,0,0
2025-01-08 14:00:17.574837,3,0,9,-2489,7730,1298,0,0,0
2025-01-08 14:00:17.576109,3,0,9,-2489,7730,1298,0,0,0
2025-01-08 14:00:17.577370,2,2,6,-2498,7740,1320,0,0,0
2025-01-08 14:00:17.578629,2,2,6,-2498,7740,1320,0,0,0
2025-01-08 14:00:17.579795,2,2,6,-2498,7740,1320,0,0,0
2025-01-08 14:00:17.581053,2,2,5,-2501,7718,1296,0,0,0
2025-01-08 14:00:17.582338,2,2,5,-2501,7718,1296,0,0,0
2025-01-08 14:00:17.583604,2,2,5,-2501,7718,1296,0,0,0
2025-01-08 14:00:17.584877,0,1,9,-2477,7728,1365,0,0,0
2025-01-08 14:00:17.586154,0,1,9,-2477,7728,1365,0,0,0
2025-01-08 14:00:17.587415,0,1,9,-2477,7728,1365,0,0,0
2025-01-08 14:00:17.588681,4,3,5,-2481,7723,1341,0,0,0
2025-01-08 14:00:17.589951,4,3,5,-2481,7723,1341,0,0,0
2025-01-08 14:00:17.591214,4,3,5,-2481,7723,1341,0,0,0
2025-01-08 14:00:17.592471,4,3,5,-2481,7723,1341,0,0,0
2025-01-08 14:00:17.593737,1,1,7,-2486,7705,1370,0,0,0
2025-01-08 14:00:17.595002,1,1,7,-2486,7705,1370,0,0,0
2025-01-08 14:00:17.596268,1,1,7,-2486,7705,1370,0,0,0
2025-01-08 14:00:17.597521,2,1,4,-2497,7690,1361,0,0,0
2025-01-08 14:00:17.598722,2,1,4,-2497,7690,1361,0,0,0
2025-01-08 14:00:17.599994,2,1,4,-2497,7690,1361,0,0,0
2025-01-08 14:00:17.601263,3,1,6,-2476,7720,1340,0,0,0
2025-01-08 14:00:17.602531,3,1,6,-2476,7720,1340,0,0,0
2025-01-08 14:00:17.603791,3,1,6,-2476,7720,1340,0,0,0
2025-01-08 14:00:17.605058,3,4,7,-2497,7749,1353,0,0,0
2025-01-08 14:00:17.606324,3,4,7,-2497,7749,1353,0,0,0
2025-01-08 14:00:17.607593,3,4,7,-2497,7749,1353,0,0,0
2025-01-08 14:00:17.608864,2,3,3,-2498,7719,1329,0,0,0
2025-01-08 14:00:17.610127,2,3,3,-2498,7719,1329,0,0,0
2025-01-08 14:00:17.611385,2,3,3,-2498,7719,1329,0,0,0
2025-01-08 14:00:17.612735,0,2,7,-2495,7741,1339,0,0,0
2025-01-08 14:00:17.614003,0,2,7,-2495,7741,1339,0,0,0
2025-01-08 14:00:17.615286,0,2,7,-2495,7741,1339,0,0,0
2025-01-08 14:00:17.616562,0,2,7,-2495,7741,1339,0,0,0
2025-01-08 14:00:17.617836,1,5,4,-2497,7717,1318,0,0,0
2025-01-08 14:00:17.619106,1,5,4,-2497,7717,1318,0,0,0
2025-01-08 14:00:17.620371,1,5,4,-2497,7717,1318,0,0,0
2025-01-08 14:00:17.621641,4,4,6,-2487,7705,1309,0,0,0
2025-01-08 14:00:17.622907,4,4,6,-2487,7705,1309,0,0,0
2025-01-08 14:00:17.624167,4,4,6,-2487,7705,1309,0,0,0
2025-01-08 14:00:17.625434,4,3,6,-2497,7724,1309,0,0,0
2025-01-08 14:00:17.626707,4,3,6,-2497,7724,1309,0,0,0
2025-01-08 14:00:17.627957,4,3,6,-2497,7724,1309,0,0,0
2025-01-08 14:00:17.629224,3,3,5,-2502,7719,1297,0,0,0
2025-01-08 14:00:17.630483,3,3,5,-2502,7719,1297,0,0,0
2025-01-08 14:00:17.631761,3,3,5,-2502,7719,1297,0,0,0
2025-01-08 14:00:17.633034,2,3,5,-2506,7729,1266,0,0,0
2025-01-08 14:00:17.634286,2,3,5,-2506,7729,1266,0,0,0
2025-01-08 14:00:17.635564,2,3,5,-2506,7729,1266,0,0,0
2025-01-08 14:00:17.636833,3,3,6,-2499,7712,1270,0,0,0
2025-01-08 14:00:17.638110,3,3,6,-2499,7712,1270,0,0,0
2025-01-08 14:00:17.639436,3,3,6,-2499,7712,1270,0,0,0
2025-01-08 14:00:17.640763,4,4,6,-2498,7699,1268,0,0,0
2025-01-08 14:00:17.642026,4,4,6,-2498,7699,1268,0,0,0
2025-01-08 14:00:17.643286,4,4,6,-2498,7699,1268,0,0,0
2025-01-08 14:00:17.644556,4,3,6,-2502,7736,1257,0,0,0
2025-01-08 14:00:17.645817,4,3,6,-2502,7736,1257,0,0,0
2025-01-08 14:00:17.647088,4,3,6,-2502,7736,1257,0,0,0
2025-01-08 14:00:17.648209,4,3,6,-2502,7736,1257,0,0,0
2025-01-08 14:00:17.649488,4,4,5,-2522,7751,1260,0,0,0
2025-01-08 14:00:17.650742,4,4,5,-2522,7751,1260,0,0,0
2025-01-08 14:00:17.652021,4,4,5,-2522,7751,1260,0,0,0
2025-01-08 14:00:17.653265,4,3,9,-2531,7749,1228,0,0,0
2025-01-08 14:00:17.654524,4,3,9,-2531,7749,1228,0,0,0
2025-01-08 14:00:17.655784,4,3,9,-2531,7749,1228,0,0,0
2025-01-08 14:00:17.656974,3,2,7,-2518,7733,1243,0,0,0
2025-01-08 14:00:17.658238,3,2,7,-2518,7733,1243,0,0,0
2025-01-08 14:00:17.659500,3,2,7,-2518,7733,1243,0,0,0
2025-01-08 14:00:17.660729,2,2,3,-2526,7762,1233,0,0,0
2025-01-08 14:00:17.661991,2,2,3,-2526,7762,1233,0,0,0
2025-01-08 14:00:17.663246,2,2,3,-2526,7762,1233,0,0,0
2025-01-08 14:00:17.664505,3,2,8,-2539,7713,1238,0,0,0
2025-01-08 14:00:17.665764,3,2,8,-2539,7713,1238,0,0,0
2025-01-08 14:00:17.667027,3,2,8,-2539,7713,1238,0,0,0
2025-01-08 14:00:17.668295,3,2,8,-2539,7713,1238,0,0,0
2025-01-08 14:00:17.669556,2,2,6,-2511,7737,1234,0,0,0
2025-01-08 14:00:17.670814,2,2,6,-2511,7737,1234,0,0,0
2025-01-08 14:00:17.672074,2,2,6,-2511,7737,1234,0,0,0
2025-01-08 14:00:17.673119,1,3,4,-2537,7744,1238,0,0,0
2025-01-08 14:00:17.674381,1,3,4,-2537,7744,1238,0,0,0
2025-01-08 14:00:17.675644,1,3,4,-2537,7744,1238,0,0,0
2025-01-08 14:00:17.676902,2,1,5,-2505,7722,1235,0,0,0
2025-01-08 14:00:17.678164,2,1,5,-2505,7722,1235,0,0,0
2025-01-08 14:00:17.679427,2,1,5,-2505,7722,1235,0,0,0
2025-01-08 14:00:17.680685,1,4,9,-2516,7723,1254,0,0,0
2025-01-08 14:00:17.681954,1,4,9,-2516,7723,1254,0,0,0
2025-01-08 14:00:17.683220,1,4,9,-2516,7723,1254,0,0,0
2025-01-08 14:00:17.684485,1,4,9,-2516,7723,1254,0,0,0
2025-01-08 14:00:17.685760,1,0,5,-2518,7736,1270,0,0,0
2025-01-08 14:00:17.687026,1,0,5,-2518,7736,1270,0,0,0
2025-01-08 14:00:17.688331,1,0,5,-2518,7736,1270,0,0,0
2025-01-08 14:00:17.689596,1,0,4,-2478,7721,1265,0,0,0
2025-01-08 14:00:17.690861,1,0,4,-2478,7721,1265,0,0,0
2025-01-08 14:00:17.692123,1,0,4,-2478,7721,1265,0,0,0
2025-01-08 14:00:17.693383,1,0,6,-2491,7743,1289,0,0,0
2025-01-08 14:00:17.694652,1,0,6,-2491,7743,1289,0,0,0
2025-01-08 14:00:17.695910,1,0,6,-2491,7743,1289,0,0,0
2025-01-08 14:00:17.697170,0,0,4,-2494,7715,1330,0,0,0
2025-01-08 14:00:17.698478,0,0,4,-2494,7715,1330,0,0,0
2025-01-08 14:00:17.699753,0,0,4,-2494,7715,1330,0,0,0
2025-01-08 14:00:17.701019,0,0,6,-2470,7725,1279,0,0,0
2025-01-08 14:00:17.702280,0,0,6,-2470,7725,1279,0,0,0
2025-01-08 14:00:17.703383,0,0,6,-2470,7725,1279,0,0,0
2025-01-08 14:00:17.704742,2,0,7,-2507,7730,1298,0,0,0
2025-01-08 14:00:17.706010,2,0,7,-2507,7730,1298,0,0,0
2025-01-08 14:00:17.707268,2,0,7,-2507,7730,1298,0,0,0
2025-01-08 14:00:17.708846,1,0,8,-2466,7717,1317,0,0,0
2025-01-08 14:00:17.710111,1,0,8,-2466,7717,1317,0,0,0
2025-01-08 14:00:17.711370,1,0,8,-2466,7717,1317,0,0,0
2025-01-08 14:00:17.712724,2,1,7,-2485,7728,1328,0,0,0
2025-01-08 14:00:17.713984,2,1,7,-2485,7728,1328,0,0,0
2025-01-08 14:00:17.715252,2,1,7,-2485,7728,1328,0,0,0
2025-01-08 14:00:17.716544,2,1,7,-2485,7728,1328,0,0,0
2025-01-08 14:00:17.717808,2,0,7,-2466,7723,1345,0,0,0
2025-01-08 14:00:17.719073,2,0,7,-2466,7723,1345,0,0,0
2025-01-08 14:00:17.720336,2,0,7,-2466,7723,1345,0,0,0
2025-01-08 14:00:17.721598,0,2,6,-2473,7728,1358,0,0,0
2025-01-08 14:00:17.722861,0,2,6,-2473,7728,1358,0,0,0
2025-01-08 14:00:17.724124,0,2,6,-2473,7728,1358,0,0,0
2025-01-08 14:00:17.725384,1,0,7,-2491,7696,1357,0,0,0
2025-01-08 14:00:17.726648,1,0,7,-2491,7696,1357,0,0,0
2025-01-08 14:00:17.727904,1,0,7,-2491,7696,1357,0,0,0
2025-01-08 14:00:17.729177,4,1,6,-2483,7735,1361,0,0,0
2025-01-08 14:00:17.730443,4,1,6,-2483,7735,1361,0,0,0
2025-01-08 14:00:17.731481,4,1,6,-2483,7735,1361,0,0,0
2025-01-08 14:00:17.732928,1,1,6,-2486,7720,1344,0,0,0
2025-01-08 14:00:17.734196,1,1,6,-2486,7720,1344,0,0,0
2025-01-08 14:00:17.735464,1,1,6,-2486,7720,1344,0,0,0
2025-01-08 14:00:17.736730,3,3,6,-2482,7711,1350,0,0,0
2025-01-08 14:00:17.737996,3,3,6,-2482,7711,1350,0,0,0
2025-01-08 14:00:17.739257,3,3,6,-2482,7711,1350,0,0,0
2025-01-08 14:00:17.740761,3,2,6,-2505,7729,1331,0,0,0
2025-01-08 14:00:17.742020,3,2,6,-2505,7729,1331,0,0,0
2025-01-08 14:00:17.743276,3,2,6,-2505,7729,1331,0,0,0
2025-01-08 14:00:17.744732,1,1,7,-2497,7717,1331,0,0,0
2025-01-08 14:00:17.745999,1,1,7,-2497,7717,1331,0,0,0
2025-01-08 14:00:17.747262,1,1,7,-2497,7717,1331,0,0,0
2025-01-08 14:00:17.748530,1,1,7,-2497,7717,1331,0,0,0
2025-01-08 14:00:17.749805,2,4,6,-2476,7723,1318,0,0,0
2025-01-08 14:00:17.751064,2,4,6,-2476,7723,1318,0,0,0
2025-01-08 14:00:17.752419,2,4,6,-2476,7723,1318,0,0,0
2025-01-08 14:00:17.753688,0,3,6,-2475,7743,1320,0,0,0
2025-01-08 14:00:17.754938,0,3,6,-2475,7743,1320,0,0,0
2025-01-08 14:00:17.756212,0,3,6,-2475,7743,1320,0,0,0
2025-01-08 14:00:17.757477,2,2,4,-2507,7721,1324,0,0,0
2025-01-08 14:00:17.758750,2,2,4,-2507,7721,1324,0,0,0
2025-01-08 14:00:17.760037,2,2,4,-2507,7721,1324,0,0,0
2025-01-08 14:00:17.761269,1,4,7,-2502,7734,1300,0,0,0
2025-01-08 14:00:17.762551,1,4,7,-2502,7734,1300,0,0,0
2025-01-08 14:00:17.763831,1,4,7,-2502,7734,1300,0,0,0
2025-01-08 14:00:17.765122,1,2,4,-2502,7746,1300,0,0,0
2025-01-08 14:00:17.766405,1,2,4,-2502,7746,1300,0,0,0
2025-01-08 14:00:17.767684,1,2,4,-2502,7746,1300,0,0,0
2025-01-08 14:00:17.768746,4,3,6,-2509,7727,1300,0,0,0
2025-01-08 14:00:17.770014,4,3,6,-2509,7727,1300,0,0,0
2025-01-08 14:00:17.771278,4,3,6,-2509,7727,1300,0,0,0
2025-01-08 14:00:17.772545,4,3,6,-2509,7727,1300,0,0,0
2025-01-08 14:00:17.773871,4,5,7,-2496,7733,1300,0,0,0
2025-01-08 14:00:17.775145,4,5,7,-2496,7733,1300,0,0,0
2025-01-08 14:00:17.776418,4,5,7,-2496,7733,1300,0,0,0
2025-01-08 14:00:17.777689,4,3,5,-2537,7720,1257,0,0,0
2025-01-08 14:00:17.778949,4,3,5,-2537,7720,1257,0,0,0
2025-01-08 14:00:17.780209,4,3,5,-2537,7720,1257,0,0,0
2025-01-08 14:00:17.781483,2,4,6,-2513,7713,1254,0,0,0
2025-01-08 14:00:17.782754,2,4,6,-2513,7713,1254,0,0,0
2025-01-08 14:00:17.784073,2,4,6,-2513,7713,1254,0,0,0
2025-01-08 14:00:17.785327,3,4,5,-2500,7736,1237,0,0,0
2025-01-08 14:00:17.786588,3,4,5,-2500,7736,1237,0,0,0
2025-01-08 14:00:17.787865,3,4,5,-2500,7736,1237,0,0,0
2025-01-08 14:00:17.789120,4,4,5,-2519,7746,1237,0,0,0
2025-01-08 14:00:17.790384,4,4,5,-2519,7746,1237,0,0,0
2025-01-08 14:00:17.791647,4,4,5,-2519,7746,1237,0,0,0
2025-01-08 14:00:17.792907,1,4,5,-2513,7724,1214,0,0,0
2025-01-08 14:00:17.794171,1,4,5,-2513,7724,1214,0,0,0
2025-01-08 14:00:17.795432,1,4,5,-2513,7724,1214,0,0,0
2025-01-08 14:00:17.796690,2,1,5,-2503,7749,1244,0,0,0
2025-01-08 14:00:17.797978,2,1,5,-2503,7749,1244,0,0,0
2025-01-08 14:00:17.799252,2,1,5,-2503,7749,1244,0,0,0
2025-01-08 14:00:17.800621,2,1,5,-2503,7749,1244,0,0,0
2025-01-08 14:00:17.801888,1,2,7,-2499,7739,1243,0,0,0
2025-01-08 14:00:17.803147,1,2,7,-2499,7739,1243,0,0,0
2025-01-08 14:00:17.804430,1,2,7,-2499,7739,1243,0,0,0
2025-01-08 14:00:17.805698,2,1,5,-2495,7741,1259,0,0,0
2025-01-08 14:00:17.806958,2,1,5,-2495,7741,1259,0,0,0
2025-01-08 14:00:17.808219,2,1,5,-2495,7741,1259,0,0,0
2025-01-08 14:00:17.809494,2,1,5,-2530,7738,1240,0,0,0
2025-01-08 14:00:17.810755,2,1,5,-2530,7738,1240,0,0,0
2025-01-08 14:00:17.812022,2,1,5,-2530,7738,1240,0,0,0
2025-01-08 14:00:17.813286,2,2,6,-2512,7728,1266,0,0,0
2025-01-08 14:00:17.814576,2,2,6,-2512,7728,1266,0,0,0
2025-01-08 14:00:17.815846,2,2,6,-2512,7728,1266,0,0,0
2025-01-08 14:00:17.817110,1,1,7,-2514,7723,1252,0,0,0
2025-01-08 14:00:17.818376,1,1,7,-2514,7723,1252,0,0,0
2025-01-08 14:00:17.819634,1,1,7,-2514,7723,1252,0,0,0
2025-01-08 14:00:17.820885,2,1,7,-2523,7709,1242,0,0,0
2025-01-08 14:00:17.822154,2,1,7,-2523,7709,1242,0,0,0
2025-01-08 14:00:17.823414,2,1,7,-2523,7709,1242,0,0,0
2025-01-08 14:00:17.824687,2,0,10,-2525,7728,1279,0,0,0
2025-01-08 14:00:17.825958,2,0,10,-2525,7728,1279,0,0,0
2025-01-08 14:00:17.827217,2,0,10,-2525,7728,1279,0,0,0
2025-01-08 14:00:17.828475,2,0,10,-2525,7728,1279,0,0,0
2025-01-08 14:00:17.829738,0,1,7,-2494,7704,1295,0,0,0
2025-01-08 14:00:17.830996,0,1,7,-2494,7704,1295,0,0,0
2025-01-08 14:00:17.832074,0,1,7,-2494,7704,1295,0,0,0
2025-01-08 14:00:17.833348,4,1,5,-2481,7723,1282,0,0,0
2025-01-08 14:00:17.834614,4,1,5,-2481,7723,1282,0,0,0
2025-01-08 14:00:17.835875,4,1,5,-2481,7723,1282,0,0,0
2025-01-08 14:00:17.837144,0,1,7,-2494,7752,1312,0,0,0
2025-01-08 14:00:17.838403,0,1,7,-2494,7752,1312,0,0,0
2025-01-08 14:00:17.839664,0,1,7,-2494,7752,1312,0,0,0
2025-01-08 14:00:17.840939,0,2,9,-2498,7728,1314,0,0,0
2025-01-08 14:00:17.842041,0,2,9,-2498,7728,1314,0,0,0
2025-01-08 14:00:17.843301,0,2,9,-2498,7728,1314,0,0,0
2025-01-08 14:00:17.844730,2,3,4,-2484,7742,1311,0,0,0
2025-01-08 14:00:17.845989,2,3,4,-2484,7742,1311,0,0,0
2025-01-08 14:00:17.847312,2,3,4,-2484,7742,1311,0,0,0
2025-01-08 14:00:17.848806,2,1,8,-2502,7734,1327,0,0,0
2025-01-08 14:00:17.850078,2,1,8,-2502,7734,1327,0,0,0
2025-01-08 14:00:17.851350,2,1,8,-2502,7734,1327,0,0,0
2025-01-08 14:00:17.853023,2,1,8,-2502,7734,1327,0,0,0
2025-01-08 14:00:17.854295,2,2,7,-2494,7724,1303,0,0,0
2025-01-08 14:00:17.855558,2,2,7,-2494,7724,1303,0,0,0
2025-01-08 14:00:17.856944,3,3,7,-2485,7731,1321,0,0,0
2025-01-08 14:00:17.858215,3,3,7,-2485,7731,1321,0,0,0
2025-01-08 14:00:17.859478,3,3,7,-2485,7731,1321,0,0,0
2025-01-08 14:00:17.860881,3,3,5,-2499,7736,1329,0,0,0
2025-01-08 14:00:17.862152,3,3,5,-2499,7736,1329,0,0,0
2025-01-08 14:00:17.863424,3,3,5,-2499,7736,1329,0,0,0
2025-01-08 14:00:17.864823,2,4,7,-2477,7743,1330,0,0,0
2025-01-08 14:00:17.866106,2,4,7,-2477,7743,1330,0,0,0
2025-01-08 14:00:17.867392,2,4,7,-2477,7743,1330,0,0,0
2025-01-08 14:00:17.868659,2,4,7,-2477,7743,1330,0,0,0
2025-01-08 14:00:17.869933,2,1,6,-2487,7725,1319,0,0,0
2025-01-08 14:00:17.871214,2,1,6,-2487,7725,1319,0,0,0
2025-01-08 14:00:17.872490,2,1,6,-2487,7725,1319,0,0,0
2025-01-08 14:00:17.873757,2,1,6,-2492,7704,1320,0,0,0
2025-01-08 14:00:17.875025,2,1,6,-2492,7704,1320,0,0,0
2025-01-08 14:00:17.876293,2,1,6,-2492,7704,1320,0,0,0
2025-01-08 14:00:17.877559,0,2,6,-2489,7712,1343,0,0,0
2025-01-08 14:00:17.878837,0,2,6,-2489,7712,1343,0,0,0
2025-01-08 14:00:17.880123,0,2,6,-2489,7712,1343,0,0,0
2025-01-08 14:00:17.881397,2,0,8,-2498,7737,1352,0,0,0
2025-01-08 14:00:17.882667,2,0,8,-2498,7737,1352,0,0,0
2025-01-08 14:00:17.883945,2,0,8,-2498,7737,1352,0,0,0
2025-01-08 14:00:17.885214,1,2,6,-2495,7711,1334,0,0,0
2025-01-08 14:00:17.886473,1,2,6,-2495,7711,1334,0,0,0
2025-01-08 14:00:17.887746,1,2,6,-2495,7711,1334,0,0,0
2025-01-08 14:00:17.889028,1,2,7,-2474,7713,1325,0,0,0
2025-01-08 14:00:17.890305,1,2,7,-2474,7713,1325,0,0,0
2025-01-08 14:00:17.891588,1,2,7,-2474,7713,1325,0,0,0
2025-01-08 14:00:17.892864,1,2,7,-2480,7758,1332,0,0,0
2025-01-08 14:00:17.894140,1,2,7,-2480,7758,1332,0,0,0
2025-01-08 14:00:17.895415,1,2,7,-2480,7758,1332,0,0,0
2025-01-08 14:00:17.896727,4,1,6,-2515,7747,1307,0,0,0
2025-01-08 14:00:17.897997,4,1,6,-2515,7747,1307,0,0,0
2025-01-08 14:00:17.899259,4,1,6,-2515,7747,1307,0,0,0
2025-01-08 14:00:17.900630,4,3,7,-2517,7734,1300,0,0,0
2025-01-08 14:00:17.901899,4,3,7,-2517,7734,1300,0,0,0
2025-01-08 14:00:17.903255,4,3,7,-2517,7734,1300,0,0,0
2025-01-08 14:00:17.904664,4,1,5,-2493,7680,1320,0,0,0
2025-01-08 14:00:17.905933,4,1,5,-2493,7680,1320,0,0,0
2025-01-08 14:00:17.907191,4,1,5,-2493,7680,1320,0,0,0
2025-01-08 14:00:17.908443,4,1,5,-2493,7680,1320,0,0,0
2025-01-08 14:00:17.909704,3,4,7,-2490,7734,1287,0,0,0
2025-01-08 14:00:17.910965,3,4,7,-2490,7734,1287,0,0,0
2025-01-08 14:00:17.912226,3,4,7,-2490,7734,1287,0,0,0
2025-01-08 14:00:17.913486,3,4,7,-2503,7741,1268,0,0,0
2025-01-08 14:00:17.914760,3,4,7,-2503,7741,1268,0,0,0
2025-01-08 14:00:17.916077,3,4,7,-2503,7741,1268,0,0,0
2025-01-08 14:00:17.917331,4,3,4,-2496,7727,1244,0,0,0
2025-01-08 14:00:17.918596,4,3,4,-2496,7727,1244,0,0,0
2025-01-08 14:00:17.919857,4,3,4,-2496,7727,1244,0,0,0
2025-01-08 14:00:17.921114,2,1,6,-2511,7710,1265,0,0,0
2025-01-08 14:00:17.922375,2,1,6,-2511,7710,1265,0,0,0
2025-01-08 14:00:17.923643,2,1,6,-2511,7710,1265,0,0,0
2025-01-08 14:00:17.924900,2,2,6,-2500,7725,1301,0,0,0
2025-01-08 14:00:17.926165,2,2,6,-2500,7725,1301,0,0,0
2025-01-08 14:00:17.927428,2,2,6,-2500,7725,1301,0,0,0
2025-01-08 14:00:17.928687,3,2,4,-2512,7754,1275,0,0,0
2025-01-08 14:00:17.929955,3,2,4,-2512,7754,1275,0,0,0
2025-01-08 14:00:17.931251,3,2,4,-2512,7754,1275,0,0,0
2025-01-08 14:00:17.932513,3,2,4,-2512,7754,1275,0,0,0
2025-01-08 14:00:17.933793,1,3,6,-2490,7719,1272,0,0,0
2025-01-08 14:00:17.935057,1,3,6,-2490,7719,1272,0,0,0
2025-01-08 14:00:17.936322,1,3,6,-2490,7719,1272,0,0,0
2025-01-08 14:00:17.937596,3,1,6,-2507,7730,1249,0,0,0
2025-01-08 14:00:17.938867,3,1,6,-2507,7730,1249,0,0,0
2025-01-08 14:00:17.940214,3,1,6,-2507,7730,1249,0,0,0
2025-01-08 14:00:17.941447,1,4,6,-2504,7752,1242,0,0,0
2025-01-08 14:00:17.942708,1,4,6,-2504,7752,1242,0,0,0
2025-01-08 14:00:17.943973,1,4,6,-2504,7752,1242,0,0,0
2025-01-08 14:00:17.945232,2,1,4,-2524,7756,1242,0,0,0
2025-01-08 14:00:17.946495,2,1,4,-2524,7756,1242,0,0,0
2025-01-08 14:00:17.947767,2,1,4,-2524,7756,1242,0,0,0
2025-01-08 14:00:17.949037,3,1,8,-2511,7718,1284,0,0,0
2025-01-08 14:00:17.950303,3,1,8,-2511,7718,1284,0,0,0
2025-01-08 14:00:17.951570,3,1,8,-2511,7718,1284,0,0,0
2025-01-08 14:00:17.952841,2,1,4,-2511,7724,1258,0,0,0
2025-01-08 14:00:17.954105,2,1,4,-2511,7724,1258,0,0,0
2025-01-08 14:00:17.955371,2,1,4,-2511,7724,1258,0,0,0
2025-01-08 14:00:17.956638,3,0,8,-2511,7743,1245,0,0,0
2025-01-08 14:00:17.957900,3,0,8,-2511,7743,1245,0,0,0
2025-01-08 14:00:17.959173,3,0,8,-2511,7743,1245,0,0,0
2025-01-08 14:00:17.960430,3,0,8,-2511,7743,1245,0,0,0
2025-01-08 14:00:17.961697,3,3,6,-2519,7744,1252,0,0,0
2025-01-08 14:00:17.962957,3,3,6,-2519,7744,1252,0,0,0
2025-01-08 14:00:17.964223,3,3,6,-2519,7744,1252,0,0,0
2025-01-08 14:00:17.965497,2,2,5,-2494,7742,1289,0,0,0
2025-01-08 14:00:17.966770,2,2,5,-2494,7742,1289,0,0,0
2025-01-08 14:00:17.968037,2,2,5,-2494,7742,1289,0,0,0
2025-01-08 14:00:17.969309,2,1,6,-2513,7717,1266,0,0,0
2025-01-08 14:00:17.970574,2,1,6,-2513,7717,1266,0,0,0
2025-01-08 14:00:17.971840,2,1,6,-2513,7717,1266,0,0,0
2025-01-08 14:00:17.973108,3,1,8,-2480,7719,1296,0,0,0
2025-01-08 14:00:17.974381,3,1,8,-2480,7719,1296,0,0,0
2025-01-08 14:00:17.975660,3,1,8,-2480,7719,1296,0,0,0
2025-01-08 14:00:17.976937,4,2,3,-2502,7730,1279,0,0,0
2025-01-08 14:00:17.978211,4,2,3,-2502,7730,1279,0,0,0
2025-01-08 14:00:17.979482,4,2,3,-2502,7730,1279,0,0,0
2025-01-08 14:00:17.980746,3,0,4,-2501,7719,1297,0,0,0
2025-01-08 14:00:17.982014,3,0,4,-2501,7719,1297,0,0,0
2025-01-08 14:00:17.983282,3,0,4,-2501,7719,1297,0,0,0
2025-01-08 14:00:17.984703,3,0,8,-2483,7701,1304,0,0,0
2025-01-08 14:00:17.985874,3,0,8,-2483,7701,1304,0,0,0
2025-01-08 14:00:17.987139,3,0,8,-2483,7701,1304,0,0,0
2025-01-08 14:00:17.988461,3,0,8,-2483,7701,1304,0,0,0
2025-01-08 14:00:17.989693,3,1,9,-2507,7734,1285,0,0,0
2025-01-08 14:00:17.990956,3,1,9,-2507,7734,1285,0,0,0
2025-01-08 14:00:17.992219,3,1,9,-2507,7734,1285,0,0,0
2025-01-08 14:00:17.993486,3,2,7,-2488,7710,1308,0,0,0
2025-01-08 14:00:17.994746,3,2,7,-2488,7710,1308,0,0,0
2025-01-08 14:00:17.996013,3,2,7,-2488,7710,1308,0,0,0
2025-01-08 14:00:17.997271,0,2,6,-2493,7742,1330,0,0,0
2025-01-08 14:00:17.998533,0,2,6,-2493,7742,1330,0,0,0
2025-01-08 14:00:17.999798,0,2,6,-2493,7742,1330,0,0,0
2025-01-08 14:00:18.001071,1,3,5,-2494,7740,1301,0,0,0
2025-01-08 14:00:18.002330,1,3,5,-2494,7740,1301,0,0,0
2025-01-08 14:00:18.003592,1,3,5,-2494,7740,1301,0,0,0
2025-01-08 14:00:18.004866,2,3,5,-2488,7707,1308,0,0,0
2025-01-08 14:00:18.006135,2,3,5,-2488,7707,1308,0,0,0
2025-01-08 14:00:18.007399,2,3,5,-2488,7707,1308,0,0,0
2025-01-08 14:00:18.008756,2,3,6,-2485,7722,1305,0,0,0
2025-01-08 14:00:18.010013,2,3,6,-2485,7722,1305,0,0,0
2025-01-08 14:00:18.011271,2,3,6,-2485,7722,1305,0,0,0
2025-01-08 14:00:18.012697,3,2,5,-2477,7716,1317,0,0,0
2025-01-08 14:00:18.013957,3,2,5,-2477,7716,1317,0,0,0
2025-01-08 14:00:18.015253,3,2,5,-2477,7716,1317,0,0,0
2025-01-08 14:00:18.016414,3,2,5,-2477,7716,1317,0,0,0
2025-01-08 14:00:18.017691,1,5,6,-2489,7709,1326,0,0,0
2025-01-08 14:00:18.018970,1,5,6,-2489,7709,1326,0,0,0
2025-01-08 14:00:18.020244,1,5,6,-2489,7709,1326,0,0,0
2025-01-08 14:00:18.021518,1,2,7,-2494,7715,1330,0,0,0
2025-01-08 14:00:18.022695,1,2,7,-2494,7715,1330,0,0,0
2025-01-08 14:00:18.023953,1,2,7,-2494,7715,1330,0,0,0
2025-01-08 14:00:18.025220,4,2,6,-2471,7724,1292,0,0,0
2025-01-08 14:00:18.026489,4,2,6,-2471,7724,1292,0,0,0
2025-01-08 14:00:18.027758,4,2,6,-2471,7724,1292,0,0,0
2025-01-08 14:00:18.029271,2,2,5,-2496,7720,1319,0,0,0
2025-01-08 14:00:18.030536,2,2,5,-2496,7720,1319,0,0,0
2025-01-08 14:00:18.031791,2,2,5,-2496,7720,1319,0,0,0
2025-01-08 14:00:18.033062,3,3,5,-2504,7741,1325,0,0,0
2025-01-08 14:00:18.034340,3,3,5,-2504,7741,1325,0,0,0
2025-01-08 14:00:18.035595,3,3,5,-2504,7741,1325,0,0,0
2025-01-08 14:00:18.036852,1,4,4,-2471,7741,1339,0,0,0
2025-01-08 14:00:18.038109,1,4,4,-2471,7741,1339,0,0,0
2025-01-08 14:00:18.039429,1,4,4,-2471,7741,1339,0,0,0
2025-01-08 14:00:18.040683,0,4,5,-2496,7740,1315,0,0,0
2025-01-08 14:00:18.041942,0,4,5,-2496,7740,1315,0,0,0
2025-01-08 14:00:18.043203,0,4,5,-2496,7740,1315,0,0,0
2025-01-08 14:00:18.044462,0,4,5,-2496,7740,1315,0,0,0
2025-01-08 14:00:18.045725,4,1,7,-2504,7732,1278,0,0,0
2025-01-08 14:00:18.046994,4,1,7,-2504,7732,1278,0,0,0
2025-01-08 14:00:18.048214,4,1,7,-2504,7732,1278,0,0,0
2025-01-08 14:00:18.049457,3,0,5,-2505,7733,1288,0,0,0
2025-01-08 14:00:18.050724,3,0,5,-2505,7733,1288,0,0,0
2025-01-08 14:00:18.051990,3,0,5,-2505,7733,1288,0,0,0
2025-01-08 14:00:18.053248,3,4,6,-2505,7715,1288,0,0,0
2025-01-08 14:00:18.054514,3,4,6,-2505,7715,1288,0,0,0
2025-01-08 14:00:18.055778,3,4,6,-2505,7715,1288,0,0,0
2025-01-08 14:00:18.057039,4,2,6,-2507,7725,1268,0,0,0
2025-01-08 14:00:18.058305,4,2,6,-2507,7725,1268,0,0,0
2025-01-08 14:00:18.059566,4,2,6,-2507,7725,1268,0,0,0
2025-01-08 14:00:18.060825,4,3,6,-2499,7726,1273,0,0,0
2025-01-08 14:00:18.061876,4,3,6,-2499,7726,1273,0,0,0
2025-01-08 14:00:18.063141,4,3,6,-2499,7726,1273,0,0,0
2025-01-08 14:00:18.064405,4,3,6,-2499,7726,1273,0,0,0
2025-01-08 14:00:18.065727,2,5,6,-2512,7749,1254,0,0,0
2025-01-08 14:00:18.066989,2,5,6,-2512,7749,1254,0,0,0
2025-01-08 14:00:18.068250,2,5,6,-2512,7749,1254,0,0,0
2025-01-08 14:00:18.069514,2,3,7,-2492,7753,1263,0,0,0
2025-01-08 14:00:18.070782,2,3,7,-2492,7753,1263,0,0,0
2025-01-08 14:00:18.072046,2,3,7,-2492,7753,1263,0,0,0
2025-01-08 14:00:18.073308,2,2,4,-2498,7747,1274,0,0,0
2025-01-08 14:00:18.074571,2,2,4,-2498,7747,1274,0,0,0
2025-01-08 14:00:18.075834,2,2,4,-2498,7747,1274,0,0,0
2025-01-08 14:00:18.077100,3,1,3,-2525,7735,1250,0,0,0
2025-01-08 14:00:18.078372,3,1,3,-2525,7735,1250,0,0,0
2025-01-08 14:00:18.079641,3,1,3,-2525,7735,1250,0,0,0
2025-01-08 14:00:18.080901,2,2,5,-2497,7720,1295,0,0,0
2025-01-08 14:00:18.082195,2,2,5,-2497,7720,1295,0,0,0
2025-01-08 14:00:18.083484,2,2,5,-2497,7720,1295,0,0,0
2025-01-08 14:00:18.084743,2,5,4,-2501,7757,1290,0,0,0
2025-01-08 14:00:18.086009,2,5,4,-2501,7757,1290,0,0,0
2025-01-08 14:00:18.087304,2,5,4,-2501,7757,1290,0,0,0
2025-01-08 14:00:18.088631,1,1,5,-2508,7721,1265,0,0,0
2025-01-08 14:00:18.089904,1,1,5,-2508,7721,1265,0,0,0
2025-01-08 14:00:18.091168,1,1,5,-2508,7721,1265,0,0,0
2025-01-08 14:00:18.092572,4,3,5,-2500,7729,1251,0,0,0
2025-01-08 14:00:18.093831,4,3,5,-2500,7729,1251,0,0,0
2025-01-08 14:00:18.095096,4,3,5,-2500,7729,1251,0,0,0
2025-01-08 14:00:18.096367,4,3,5,-2500,7729,1251,0,0,0
2025-01-08 14:00:18.097636,3,2,7,-2496,7723,1264,0,0,0
2025-01-08 14:00:18.098905,3,2,7,-2496,7723,1264,0,0,0
2025-01-08 14:00:18.100172,3,2,7,-2496,7723,1264,0,0,0
2025-01-08 14:00:18.101438,2,1,9,-2504,7744,1260,0,0,0
2025-01-08 14:00:18.102697,2,1,9,-2504,7744,1260,0,0,0
2025-01-08 14:00:18.103959,2,1,9,-2504,7744,1260,0,0,0
2025-01-08 14:00:18.105227,2,1,6,-2519,7731,1264,0,0,0
2025-01-08 14:00:18.106492,2,1,6,-2519,7731,1264,0,0,0
2025-01-08 14:00:18.107752,2,1,6,-2519,7731,1264,0,0,0
2025-01-08 14:00:18.109019,2,1,9,-2461,7738,1274,0,0,0
2025-01-08 14:00:18.110284,2,1,9,-2461,7738,1274,0,0,0
2025-01-08 14:00:18.111542,2,1,9,-2461,7738,1274,0,0,0
2025-01-08 14:00:18.112830,3,3,6,-2486,7720,1292,0,0,0
2025-01-08 14:00:18.114093,3,3,6,-2486,7720,1292,0,0,0
2025-01-08 14:00:18.115370,3,3,6,-2486,7720,1292,0,0,0
2025-01-08 14:00:18.116944,2,0,8,-2538,7744,1296,0,0,0
2025-01-08 14:00:18.118219,2,0,8,-2538,7744,1296,0,0,0
2025-01-08 14:00:18.119493,2,0,8,-2538,7744,1296,0,0,0
2025-01-08 14:00:18.120864,2,2,3,-2498,7722,1295,0,0,0
2025-01-08 14:00:18.122126,2,2,3,-2498,7722,1295,0,0,0
2025-01-08 14:00:18.123398,2,2,3,-2498,7722,1295,0,0,0
2025-01-08 14:00:18.124765,0,1,6,-2490,7727,1318,0,0,0
2025-01-08 14:00:18.126036,0,1,6,-2490,7727,1318,0,0,0
2025-01-08 14:00:18.127306,0,1,6,-2490,7727,1318,0,0,0
2025-01-08 14:00:18.128757,1,2,7,-2520,7737,1346,0,0,0
2025-01-08 14:00:18.130020,1,2,7,-2520,7737,1346,0,0,0
2025-01-08 14:00:18.131283,1,2,7,-2520,7737,1346,0,0,0
2025-01-08 14:00:18.132564,1,2,7,-2520,7737,1346,0,0,0
2025-01-08 14:00:18.133835,1,4,6,-2496,7721,1309,0,0,0
2025-01-08 14:00:18.135094,1,4,6,-2496,7721,1309,0,0,0
2025-01-08 14:00:18.136355,1,4,6,-2496,7721,1309,0,0,0
2025-01-08 14:00:18.137610,0,2,8,-2473,7726,1304,0,0,0
2025-01-08 14:00:18.138878,0,2,8,-2473,7726,1304,0,0,0
2025-01-08 14:00:18.140136,0,2,8,-2473,7726,1304,0,0,0
2025-01-08 14:00:18.141410,4,0,5,-2480,7750,1308,0,0,0
2025-01-08 14:00:18.142671,4,0,5,-2480,7750,1308,0,0,0
2025-01-08 14:00:18.143950,4,0,5,-2480,7750,1308,0,0,0
2025-01-08 14:00:18.145346,2,1,7,-2496,7706,1300,0,0,0
2025-01-08 14:00:18.146619,2,1,7,-2496,7706,1300,0,0,0
2025-01-08 14:00:18.147891,2,1,7,-2496,7706,1300,0,0,0
2025-01-08 14:00:18.149170,2,0,5,-2482,7728,1310,0,0,0
2025-01-08 14:00:18.150452,2,0,5,-2482,7728,1310,0,0,0
2025-01-08 14:00:18.151718,2,0,5,-2482,7728,1310,0,0,0
2025-01-08 14:00:18.152989,5,2,5,-2464,7711,1321,0,0,0
2025-01-08 14:00:18.154249,5,2,5,-2464,7711,1321,0,0,0
2025-01-08 14:00:18.155519,5,2,5,-2464,7711,1321,0,0,0
2025-01-08 14:00:18.157316,1,1,5,-2481,7706,1309,0,0,0
2025-01-08 14:00:18.158613,1,1,5,-2481,7706,1309,0,0,0
2025-01-08 14:00:18.159885,1,1,5,-2481,7706,1309,0,0,0
2025-01-08 14:00:18.161153,3,2,4,-2471,7736,1337,0,0,0
2025-01-08 14:00:18.162411,3,2,4,-2471,7736,1337,0,0,0
2025-01-08 14:00:18.163673,3,2,4,-2471,7736,1337,0,0,0
2025-01-08 14:00:18.164927,3,3,7,-2481,7731,1331,0,0,0
2025-01-08 14:00:18.166189,3,3,7,-2481,7731,1331,0,0,0
2025-01-08 14:00:18.167450,3,3,7,-2481,7731,1331,0,0,0
2025-01-08 14:00:18.168743,4,3,5,-2479,7717,1310,0,0,0
2025-01-08 14:00:18.170003,4,3,5,-2479,7717,1310,0,0,0
2025-01-08 14:00:18.171300,4,3,5,-2479,7717,1310,0,0,0
2025-01-08 14:00:18.172632,2,1,2,-2479,7754,1289,0,0,0
2025-01-08 14:00:18.173884,2,1,2,-2479,7754,1289,0,0,0
2025-01-08 14:00:18.175133,2,1,2,-2479,7754,1289,0,0,0
2025-01-08 14:00:18.176543,1,2,5,-2489,7720,1346,0,0,0
2025-01-08 14:00:18.177815,1,2,5,-2489,7720,1346,0,0,0
2025-01-08 14:00:18.179078,1,2,5,-2489,7720,1346,0,0,0
2025-01-08 14:00:18.180331,1,2,5,-2489,7720,1346,0,0,0
2025-01-08 14:00:18.181596,3,3,3,-2496,7718,1287,0,0,0
2025-01-08 14:00:18.182868,3,3,3,-2496,7718,1287,0,0,0
2025-01-08 14:00:18.184138,3,3,3,-2496,7718,1287,0,0,0
2025-01-08 14:00:18.185377,4,3,6,-2508,7724,1300,0,0,0
2025-01-08 14:00:18.186631,4,3,6,-2508,7724,1300,0,0,0
2025-01-08 14:00:18.187905,4,3,6,-2508,7724,1300,0,0,0
2025-01-08 14:00:18.189156,3,3,5,-2521,7718,1304,0,0,0
2025-01-08 14:00:18.190412,3,3,5,-2521,7718,1304,0,0,0
2025-01-08 14:00:18.191668,3,3,5,-2521,7718,1304,0,0,0
2025-01-08 14:00:18.192925,2,3,4,-2506,7725,1278,0,0,0
2025-01-08 14:00:18.194188,2,3,4,-2506,7725,1278,0,0,0
2025-01-08 14:00:18.195446,2,3,4,-2506,7725,1278,0,0,0
2025-01-08 14:00:18.196700,3,4,6,-2497,7715,1265,0,0,0
2025-01-08 14:00:18.197961,3,4,6,-2497,7715,1265,0,0,0
2025-01-08 14:00:18.199230,3,4,6,-2497,7715,1265,0,0,0
2025-01-08 14:00:18.200545,4,4,7,-2483,7726,1294,0,0,0
2025-01-08 14:00:18.201808,4,4,7,-2483,7726,1294,0,0,0
2025-01-08 14:00:18.203068,4,4,7,-2483,7726,1294,0,0,0
2025-01-08 14:00:18.204328,4,4,7,-2483,7726,1294,0,0,0
2025-01-08 14:00:18.205594,3,1,7,-2490,7707,1278,0,0,0
2025-01-08 14:00:18.206854,3,1,7,-2490,7707,1278,0,0,0
2025-01-08 14:00:18.208122,3,1,7,-2490,7707,1278,0,0,0
2025-01-08 14:00:18.209382,3,3,5,-2469,7732,1274,0,0,0
2025-01-08 14:00:18.210646,3,3,5,-2469,7732,1274,0,0,0
2025-01-08 14:00:18.211911,3,3,5,-2469,7732,1274,0,0,0
2025-01-08 14:00:18.213173,3,5,7,-2494,7724,1271,0,0,0
2025-01-08 14:00:18.214439,3,5,7,-2494,7724,1271,0,0,0
2025-01-08 14:00:18.215713,3,5,7,-2494,7724,1271,0,0,0
2025-01-08 14:00:18.216976,1,3,6,-2514,7731,1284,0,0,0
2025-01-08 14:00:18.218238,1,3,6,-2514,7731,1284,0,0,0
2025-01-08 14:00:18.219501,1,3,6,-2514,7731,1284,0,0,0
2025-01-08 14:00:18.220769,2,2,7,-2496,7737,1251,0,0,0
2025-01-08 14:00:18.222027,2,2,7,-2496,7737,1251,0,0,0
2025-01-08 14:00:18.223286,2,2,7,-2496,7737,1251,0,0,0
2025-01-08 14:00:18.224708,4,2,5,-2469,7725,1265,0,0,0
2025-01-08 14:00:18.225757,4,2,5,-2469,7725,1265,0,0,0
2025-01-08 14:00:18.227018,4,2,5,-2469,7725,1265,0,0,0
2025-01-08 14:00:18.228311,4,2,5,-2469,7725,1265,0,0,0
2025-01-08 14:00:18.229577,2,4,6,-2485,7725,1244,0,0,0
2025-01-08 14:00:18.230840,2,4,6,-2485,7725,1244,0,0,0
2025-01-08 14:00:18.232111,2,4,6,-2485,7725,1244,0,0,0
2025-01-08 14:00:18.233375,1,1,8,-2494,7706,1268,0,0,0
2025-01-08 14:00:18.234640,1,1,8,-2494,7706,1268,0,0,0
2025-01-08 14:00:18.235898,1,1,8,-2494,7706,1268,0,0,0
2025-01-08 14:00:18.237162,1,0,4,-2511,7725,1262,0,0,0
2025-01-08 14:00:18.238426,1,0,4,-2511,7725,1262,0,0,0
2025-01-08 14:00:18.239688,1,0,4,-2511,7725,1262,0,0,0
2025-01-08 14:00:18.240951,2,2,6,-2491,7732,1280,0,0,0
2025-01-08 14:00:18.242220,2,2,6,-2491,7732,1280,0,0,0
2025-01-08 14:00:18.243485,2,2,6,-2491,7732,1280,0,0,0
2025-01-08 14:00:18.244749,1,1,7,-2500,7724,1269,0,0,0
2025-01-08 14:00:18.246006,1,1,7,-2500,7724,1269,0,0,0
2025-01-08 14:00:18.247264,1,1,7,-2500,7724,1269,0,0,0
2025-01-08 14:00:18.248848,1,1,7,-2484,7748,1283,0,0,0
2025-01-08 14:00:18.250209,1,1,7,-2484,7748,1283,0,0,0
2025-01-08 14:00:18.251474,1,1,7,-2484,7748,1283,0,0,0
2025-01-08 14:00:18.252807,1,2,6,-2508,7728,1269,0,0,0
2025-01-08 14:00:18.254058,1,2,6,-2508,7728,1269,0,0,0
2025-01-08 14:00:18.255322,1,2,6,-2508,7728,1269,0,0,0
2025-01-08 14:00:18.256749,3,0,4,-2516,7720,1288,0,0,0
2025-01-08 14:00:18.258017,3,0,4,-2516,7720,1288,0,0,0
2025-01-08 14:00:18.259274,3,0,4,-2516,7720,1288,0,0,0
2025-01-08 14:00:18.260685,1,2,5,-2498,7742,1296,0,0,0
2025-01-08 14:00:18.261945,1,2,5,-2498,7742,1296,0,0,0
2025-01-08 14:00:18.263258,1,2,5,-2498,7742,1296,0,0,0
2025-01-08 14:00:18.264697,3,1,6,-2491,7711,1315,0,0,0
2025-01-08 14:00:18.265949,3,1,6,-2491,7711,1315,0,0,0
2025-01-08 14:00:18.267212,3,1,6,-2491,7711,1315,0,0,0
2025-01-08 14:00:18.268494,3,1,6,-2491,7711,1315,0,0,0
2025-01-08 14:00:18.269761,3,3,6,-2472,7709,1312,0,0,0
2025-01-08 14:00:18.271024,3,3,6,-2472,7709,1312,0,0,0
2025-01-08 14:00:18.272231,3,3,6,-2472,7709,1312,0,0,0
2025-01-08 14:00:18.273498,2,1,5,-2485,7717,1314,0,0,0
2025-01-08 14:00:18.274692,2,1,5,-2485,7717,1314,0,0,0
2025-01-08 14:00:18.275961,2,1,5,-2485,7717,1314,0,0,0
2025-01-08 14:00:18.277237,3,3,6,-2485,7725,1319,0,0,0
2025-01-08 14:00:18.278519,3,3,6,-2485,7725,1319,0,0,0
2025-01-08 14:00:18.279787,3,3,6,-2485,7725,1319,0,0,0
2025-01-08 14:00:18.281049,2,3,6,-2484,7735,1312,0,0,0
2025-01-08 14:00:18.282322,2,3,6,-2484,7735,1312,0,0,0
2025-01-08 14:00:18.283606,2,3,6,-2484,7735,1312,0,0,0
2025-01-08 14:00:18.285756,4,3,6,-2492,7752,1325,0,0,0
2025-01-08 14:00:18.287023,4,3,6,-2492,7752,1325,0,0,0
2025-01-08 14:00:18.288290,4,3,6,-2492,7752,1325,0,0,0
2025-01-08 14:00:18.289551,2,2,6,-2469,7706,1295,0,0,0
2025-01-08 14:00:18.290817,2,2,6,-2469,7706,1295,0,0,0
2025-01-08 14:00:18.292083,2,2,6,-2469,7706,1295,0,0,0
2025-01-08 14:00:18.293346,3,2,7,-2466,7738,1327,0,0,0
2025-01-08 14:00:18.294611,3,2,7,-2466,7738,1327,0,0,0
2025-01-08 14:00:18.295879,3,2,7,-2466,7738,1327,0,0,0
2025-01-08 14:00:18.297138,3,3,7,-2487,7729,1346,0,0,0
2025-01-08 14:00:18.298414,3,3,7,-2487,7729,1346,0,0,0
2025-01-08 14:00:18.299696,3,3,7,-2487,7729,1346,0,0,0
2025-01-08 14:00:18.301518,2,3,5,-2480,7736,1321,0,0,0
2025-01-08 14:00:18.302785,2,3,5,-2480,7736,1321,0,0,0
2025-01-08 14:00:18.304056,2,3,5,-2480,7736,1321,0,0,0
2025-01-08 14:00:18.305315,4,3,6,-2495,7738,1319,0,0,0
2025-01-08 14:00:18.306582,4,3,6,-2495,7738,1319,0,0,0
2025-01-08 14:00:18.307850,4,3,6,-2495,7738,1319,0,0,0
2025-01-08 14:00:18.309111,3,2,5,-2470,7720,1320,0,0,0
2025-01-08 14:00:18.310380,3,2,5,-2470,7720,1320,0,0,0
2025-01-08 14:00:18.311646,3,2,5,-2470,7720,1320,0,0,0
2025-01-08 14:00:18.312906,3,1,7,-2470,7738,1311,0,0,0
2025-01-08 14:00:18.314177,3,1,7,-2470,7738,1311,0,0,0
2025-01-08 14:00:18.315462,3,1,7,-2470,7738,1311,0,0,0
2025-01-08 14:00:18.316730,4,3,7,-2482,7769,1296,0,0,0
2025-01-08 14:00:18.318011,4,3,7,-2482,7769,1296,0,0,0
2025-01-08 14:00:18.319267,4,3,7,-2482,7769,1296,0,0,0
2025-01-08 14:00:18.320536,4,3,7,-2482,7769,1296,0,0,0
2025-01-08 14:00:18.321641,0,2,6,-2497,7736,1297,0,0,0
2025-01-08 14:00:18.322902,0,2,6,-2497,7736,1297,0,0,0
2025-01-08 14:00:18.324162,0,2,6,-2497,7736,1297,0,0,0
2025-01-08 14:00:18.325229,2,4,6,-2501,7716,1309,0,0,0
2025-01-08 14:00:18.326495,2,4,6,-2501,7716,1309,0,0,0
2025-01-08 14:00:18.327763,2,4,6,-2501,7716,1309,0,0,0
2025-01-08 14:00:18.329026,4,2,3,-2527,7732,1290,0,0,0
2025-01-08 14:00:18.330294,4,2,3,-2527,7732,1290,0,0,0
2025-01-08 14:00:18.331562,4,2,3,-2527,7732,1290,0,0,0
2025-01-08 14:00:18.332827,2,1,5,-2500,7729,1293,0,0,0
2025-01-08 14:00:18.334090,2,1,5,-2500,7729,1293,0,0,0
2025-01-08 14:00:18.335350,2,1,5,-2500,7729,1293,0,0,0
2025-01-08 14:00:18.336645,2,3,8,-2494,7727,1273,0,0,0
2025-01-08 14:00:18.337908,2,3,8,-2494,7727,1273,0,0,0
2025-01-08 14:00:18.339172,2,3,8,-2494,7727,1273,0,0,0
2025-01-08 14:00:18.340435,2,3,8,-2494,7727,1273,0,0,0
2025-01-08 14:00:18.341697,2,1,5,-2494,7743,1283,0,0,0
2025-01-08 14:00:18.342995,2,1,5,-2494,7743,1283,0,0,0
2025-01-08 14:00:18.344105,2,1,5,-2494,7743,1283,0,0,0
2025-01-08 14:00:18.345364,3,1,4,-2498,7729,1253,0,0,0
2025-01-08 14:00:18.346636,3,1,4,-2498,7729,1253,0,0,0
2025-01-08 14:00:18.347659,3,1,4,-2498,7729,1253,0,0,0
2025-01-08 14:00:18.348939,2,2,5,-2481,7723,1258,0,0,0
2025-01-08 14:00:18.350216,2,2,5,-2481,7723,1258,0,0,0
2025-01-08 14:00:18.351235,2,2,5,-2481,7723,1258,0,0,0
2025-01-08 14:00:18.352506,2,2,5,-2481,7723,1258,0,0,0
2025-01-08 14:00:18.353780,2,3,4,-2505,7725,1255,0,0,0
2025-01-08 14:00:18.355064,2,3,4,-2505,7725,1255,0,0,0
2025-01-08 14:00:18.356348,2,3,4,-2505,7725,1255,0,0,0
2025-01-08 14:00:18.357624,2,2,6,-2504,7725,1284,0,0,0
2025-01-08 14:00:18.358904,2,2,6,-2504,7725,1284,0,0,0
2025-01-08 14:00:18.360174,2,2,6,-2504,7725,1284,0,0,0
2025-01-08 14:00:18.361429,3,3,6,-2507,7730,1296,0,0,0
2025-01-08 14:00:18.362689,3,3,6,-2507,7730,1296,0,0,0
2025-01-08 14:00:18.363943,3,3,6,-2507,7730,1296,0,0,0
2025-01-08 14:00:18.365203,3,2,7,-2526,7750,1267,0,0,0
2025-01-08 14:00:18.366467,3,2,7,-2526,7750,1267,0,0,0
2025-01-08 14:00:18.367721,3,2,7,-2526,7750,1267,0,0,0
2025-01-08 14:00:18.368975,4,2,7,-2513,7726,1254,0,0,0
2025-01-08 14:00:18.370229,4,2,7,-2513,7726,1254,0,0,0
2025-01-08 14:00:18.371485,4,2,7,-2513,7726,1254,0,0,0
2025-01-08 14:00:18.372740,2,4,7,-2479,7760,1256,0,0,0
2025-01-08 14:00:18.373998,2,4,7,-2479,7760,1256,0,0,0
2025-01-08 14:00:18.375251,2,4,7,-2479,7760,1256,0,0,0
2025-01-08 14:00:18.376523,1,3,5,-2483,7704,1275,0,0,0
2025-01-08 14:00:18.377776,1,3,5,-2483,7704,1275,0,0,0
2025-01-08 14:00:18.379034,1,3,5,-2483,7704,1275,0,0,0
2025-01-08 14:00:18.380292,1,3,5,-2483,7704,1275,0,0,0
2025-01-08 14:00:18.381547,2,3,7,-2493,7745,1306,0,0,0
2025-01-08 14:00:18.382800,2,3,7,-2493,7745,1306,0,0,0
2025-01-08 14:00:18.384054,2,3,7,-2493,7745,1306,0,0,0
2025-01-08 14:00:18.385308,1,1,8,-2496,7725,1289,0,0,0
2025-01-08 14:00:18.386561,1,1,8,-2496,7725,1289,0,0,0
2025-01-08 14:00:18.387814,1,1,8,-2496,7725,1289,0,0,0
2025-01-08 14:00:18.389067,1,2,7,-2482,7735,1258,0,0,0
2025-01-08 14:00:18.390294,1,2,7,-2482,7735,1258,0,0,0
2025-01-08 14:01:11.898367,104,186,49,-362,7650,-3219,0,1,0
2025-01-08 14:01:11.899623,104,186,49,-362,7650,-3219,0,1,0
2025-01-08 14:01:11.900871,103,193,49,-348,7645,-3232,0,1,0
2025-01-08 14:01:11.902135,103,193,49,-348,7645,-3232,0,1,0
2025-01-08 14:01:11.903394,103,193,49,-348,7645,-3232,0,1,0
2025-01-08 14:01:11.904644,106,202,49,-319,7695,-3238,0,1,0
2025-01-08 14:01:11.905904,106,202,49,-319,7695,-3238,0,1,0
2025-01-08 14:01:11.907156,106,202,49,-319,7695,-3238,0,1,0
2025-01-08 14:01:11.908411,113,218,46,-362,7731,-3204,0,1,0
2025-01-08 14:01:11.909666,113,218,46,-362,7731,-3204,0,1,0
2025-01-08 14:01:11.910915,113,218,46,-362,7731,-3204,0,1,0
2025-01-08 14:01:11.912168,123,236,40,-376,7751,-3151,0,1,0
2025-01-08 14:01:11.913430,123,236,40,-376,7751,-3151,0,1,0
2025-01-08 14:01:11.914689,123,236,40,-376,7751,-3151,0,1,0
2025-01-08 14:01:11.915960,123,236,40,-376,7751,-3151,0,1,0
2025-01-08 14:01:11.917219,140,259,31,-387,7797,-3148,0,1,0
2025-01-08 14:01:11.918478,140,259,31,-387,7797,-3148,0,1,0
2025-01-08 14:01:11.919736,140,259,31,-387,7797,-3148,0,1,0
2025-01-08 14:01:11.920996,161,284,19,-371,7856,-3138,0,1,0
2025-01-08 14:01:11.922258,161,284,19,-371,7856,-3138,0,1,0
2025-01-08 14:01:11.923514,161,284,19,-371,7856,-3138,0,1,0
2025-01-08 14:01:11.924770,193,313,-3,-441,7957,-3135,0,1,0
2025-01-08 14:01:11.926032,193,313,-3,-441,7957,-3135,0,1,0
2025-01-08 14:01:11.927296,193,313,-3,-441,7957,-3135,0,1,0
2025-01-08 14:01:11.928557,231,344,-28,-501,8046,-3147,0,1,0
2025-01-08 14:01:11.929818,231,344,-28,-501,8046,-3147,0,1,0
2025-01-08 14:01:11.931079,231,344,-28,-501,8046,-3147,0,1,0
2025-01-08 14:01:11.932329,269,376,-59,-536,8085,-3101,0,1,0
2025-01-08 14:01:11.933580,269,376,-59,-536,8085,-3101,0,1,0
2025-01-08 14:01:11.934833,269,376,-59,-536,8085,-3101,0,1,0
2025-01-08 14:01:11.936129,312,415,-100,-617,8069,-3105,0,1,0
2025-01-08 14:01:11.937381,312,415,-100,-617,8069,-3105,0,1,0
2025-01-08 14:01:11.938634,312,415,-100,-617,8069,-3105,0,1,0
2025-01-08 14:01:11.939888,312,415,-100,-617,8069,-3105,0,1,0
2025-01-08 14:01:11.941145,352,456,-137,-664,8014,-3100,0,1,0
2025-01-08 14:01:11.942397,352,456,-137,-664,8014,-3100,0,1,0
2025-01-08 14:01:11.943650,352,456,-137,-664,8014,-3100,0,1,0
2025-01-08 14:01:11.944903,390,493,-168,-710,7911,-3075,0,1,0
2025-01-08 14:01:11.946155,390,493,-168,-710,7911,-3075,0,1,0
2025-01-08 14:01:11.947409,390,493,-168,-710,7911,-3075,0,1,0
2025-01-08 14:01:11.948661,418,536,-204,-704,7867,-3051,0,1,0
2025-01-08 14:01:11.949915,418,536,-204,-704,7867,-3051,0,1,0
2025-01-08 14:01:11.951168,418,536,-204,-704,7867,-3051,0,1,0
2025-01-08 14:01:11.952420,439,579,-239,-720,7847,-3054,0,1,0
2025-01-08 14:01:11.953671,439,579,-239,-720,7847,-3054,0,1,0
2025-01-08 14:01:11.954925,439,579,-239,-720,7847,-3054,0,1,0
2025-01-08 14:01:11.956177,456,615,-269,-710,7758,-3025,0,1,0
2025-01-08 14:01:11.957429,456,615,-269,-710,7758,-3025,0,1,0
2025-01-08 14:01:11.958681,456,615,-269,-710,7758,-3025,0,1,0
2025-01-08 14:01:11.959933,456,615,-269,-710,7758,-3025,0,1,0
2025-01-08 14:01:11.961186,472,649,-299,-725,7754,-2977,0,1,0
2025-01-08 14:01:11.962437,472,649,-299,-725,7754,-2977,0,1,0
2025-01-08 14:01:11.963690,472,649,-299,-725,7754,-2977,0,1,0
2025-01-08 14:01:11.964945,487,682,-328,-746,7689,-2938,0,1,0
2025-01-08 14:01:11.966208,487,682,-328,-746,7689,-2938,0,1,0
2025-01-08 14:01:11.967466,487,682,-328,-746,7689,-2938,0,1,0
2025-01-08 14:01:11.968716,497,708,-350,-761,7653,-2870,0,1,0
2025-01-08 14:01:11.969970,497,708,-350,-761,7653,-2870,0,1,0
2025-01-08 14:01:11.971233,497,708,-350,-761,7653,-2870,0,1,0
2025-01-08 14:01:11.972487,508,729,-373,-721,7622,-2812,0,1,0
2025-01-08 14:01:11.973738,508,729,-373,-721,7622,-2812,0,1,0
2025-01-08 14:01:11.975001,508,729,-373,-721,7622,-2812,0,1,0
2025-01-08 14:01:11.976250,517,749,-388,-686,7535,-2777,0,1,0
2025-01-08 14:01:11.977512,517,749,-388,-686,7535,-2777,0,1,0
2025-01-08 14:01:11.978771,517,749,-388,-686,7535,-2777,0,1,0
2025-01-08 14:01:11.980028,517,749,-388,-686,7535,-2777,0,1,0
2025-01-08 14:01:11.981287,522,760,-397,-651,7501,-2806,0,1,0
2025-01-08 14:01:11.982547,522,760,-397,-651,7501,-2806,0,1,0
2025-01-08 14:01:11.983806,522,760,-397,-651,7501,-2806,0,1,0
2025-01-08 14:01:11.985072,525,765,-403,-568,7426,-2794,0,1,0
2025-01-08 14:01:11.986332,525,765,-403,-568,7426,-2794,0,1,0
2025-01-08 14:01:11.987582,525,765,-403,-568,7426,-2794,0,1,0
2025-01-08 14:01:11.988843,519,764,-406,-484,7387,-2792,0,1,0
2025-01-08 14:01:11.989939,519,764,-406,-484,7387,-2792,0,1,0
2025-01-08 14:01:11.991183,519,764,-406,-484,7387,-2792,0,1,0
2025-01-08 14:01:11.992433,512,760,-406,-479,7309,-2819,0,1,0
2025-01-08 14:01:11.993695,512,760,-406,-479,7309,-2819,0,1,0
2025-01-08 14:01:11.994955,512,760,-406,-479,7309,-2819,0,1,0
2025-01-08 14:01:11.996205,496,748,-407,-418,7268,-2797,0,1,0
2025-01-08 14:01:11.997466,496,748,-407,-418,7268,-2797,0,1,0
2025-01-08 14:01:11.998725,496,748,-407,-418,7268,-2797,0,1,0
2025-01-08 14:01:11.999985,496,748,-407,-418,7268,-2797,0,1,0
2025-01-08 14:01:12.001244,479,735,-408,-419,7252,-2765,0,1,0
2025-01-08 14:01:12.002503,479,735,-408,-419,7252,-2765,0,1,0
2025-01-08 14:01:12.003764,479,735,-408,-419,7252,-2765,0,1,0
2025-01-08 14:01:12.005024,460,723,-404,-419,7206,-2737,0,1,0
2025-01-08 14:01:12.006288,460,723,-404,-419,7206,-2737,0,1,0
2025-01-08 14:01:12.007363,460,723,-404,-419,7206,-2737,0,1,0
2025-01-08 14:01:12.008617,429,704,-398,-520,7140,-2625,0,1,0
2025-01-08 14:01:12.009879,429,704,-398,-520,7140,-2625,0,1,0
2025-01-08 14:01:12.011140,429,704,-398,-520,7140,-2625,0,1,0
2025-01-08 14:01:12.012390,407,667,-386,-700,7078,-2385,0,1,0
2025-01-08 14:01:12.013643,407,667,-386,-700,7078,-2385,0,1,0
2025-01-08 14:01:12.014904,407,667,-386,-700,7078,-2385,0,1,0
2025-01-08 14:01:12.016188,384,619,-381,-595,7076,-2333,0,1,0
2025-01-08 14:01:12.017456,384,619,-381,-595,7076,-2333,0,1,0
2025-01-08 14:01:12.018715,384,619,-381,-595,7076,-2333,0,1,0
2025-01-08 14:01:12.019976,384,619,-381,-595,7076,-2333,0,1,0
2025-01-08 14:01:12.021236,357,554,-376,-309,7059,-2362,0,1,0
2025-01-08 14:01:12.022497,357,554,-376,-309,7059,-2362,0,1,0
2025-01-08 14:01:12.023751,357,554,-376,-309,7059,-2362,0,1,0
2025-01-08 14:01:12.025006,331,484,-369,-26,7071,-2467,0,1,0
2025-01-08 14:01:12.026266,331,484,-369,-26,7071,-2467,0,1,0
2025-01-08 14:01:12.027526,331,484,-369,-26,7071,-2467,0,1,0
2025-01-08 14:01:12.028787,307,422,-360,177,7146,-2584,0,1,0
2025-01-08 14:01:12.030050,307,422,-360,177,7146,-2584,0,1,0
2025-01-08 14:01:12.031302,307,422,-360,177,7146,-2584,0,1,0
2025-01-08 14:01:12.032555,289,372,-352,227,7216,-2634,0,1,0
2025-01-08 14:01:12.033811,289,372,-352,227,7216,-2634,0,1,0
2025-01-08 14:01:12.035064,289,372,-352,227,7216,-2634,0,1,0
2025-01-08 14:01:12.036319,274,339,-342,159,7268,-2595,0,1,0
2025-01-08 14:01:12.037581,274,339,-342,159,7268,-2595,0,1,0
2025-01-08 14:01:12.038832,274,339,-342,159,7268,-2595,0,1,0
2025-01-08 14:01:12.040089,274,339,-342,159,7268,-2595,0,1,0
2025-01-08 14:01:12.041343,258,321,-340,26,7279,-2551,0,1,0
2025-01-08 14:01:12.042603,258,321,-340,26,7279,-2551,0,1,0
2025-01-08 14:01:12.043864,258,321,-340,26,7279,-2551,0,1,0
2025-01-08 14:01:12.045028,246,309,-336,-206,7290,-2468,0,1,0
2025-01-08 14:01:12.046288,246,309,-336,-206,7290,-2468,0,1,0
2025-01-08 14:01:12.047549,246,309,-336,-206,7290,-2468,0,1,0
2025-01-08 14:01:12.048809,237,302,-327,-329,7263,-2480,0,1,0
2025-01-08 14:01:12.050068,237,302,-327,-329,7263,-2480,0,1,0
2025-01-08 14:01:12.051332,237,302,-327,-329,7263,-2480,0,1,0
2025-01-08 14:01:12.052580,220,301,-316,-349,7178,-2481,0,1,0
2025-01-08 14:01:12.053841,220,301,-316,-349,7178,-2481,0,1,0
2025-01-08 14:01:12.055100,220,301,-316,-349,7178,-2481,0,1,0
2025-01-08 14:01:12.056351,201,296,-296,-375,7225,-2467,0,1,0
2025-01-08 14:01:12.057611,201,296,-296,-375,7225,-2467,0,1,0
2025-01-08 14:01:12.058871,201,296,-296,-375,7225,-2467,0,1,0
2025-01-08 14:01:12.060122,190,270,-263,-552,7475,-2190,0,1,0
2025-01-08 14:01:12.061384,190,270,-263,-552,7475,-2190,0,1,0
2025-01-08 14:01:12.062644,190,270,-263,-552,7475,-2190,0,1,0
2025-01-08 14:01:12.063908,190,270,-263,-552,7475,-2190,0,1,0
2025-01-08 14:01:12.065168,198,227,-204,-704,7811,-1874,0,1,0
2025-01-08 14:01:12.066429,198,227,-204,-704,7811,-1874,0,1,0
2025-01-08 14:01:12.067689,198,227,-204,-704,7811,-1874,0,1,0
2025-01-08 14:01:12.068948,225,153,-123,-601,8095,-1610,0,1,0
2025-01-08 14:01:12.070207,225,153,-123,-601,8095,-1610,0,1,0
2025-01-08 14:01:12.071467,225,153,-123,-601,8095,-1610,0,1,0
2025-01-08 14:01:12.072727,243,67,-37,-127,8196,-1697,0,1,0
2025-01-08 14:01:12.073987,243,67,-37,-127,8196,-1697,0,1,0
2025-01-08 14:01:12.075250,243,67,-37,-127,8196,-1697,0,1,0
2025-01-08 14:01:12.076503,242,-8,30,322,8180,-2008,0,1,0
2025-01-08 14:01:12.077765,242,-8,30,322,8180,-2008,0,1,0
2025-01-08 14:01:12.079024,242,-8,30,322,8180,-2008,0,1,0
2025-01-08 14:01:12.080276,226,-74,90,810,8051,-2412,0,1,0
2025-01-08 14:01:12.081544,226,-74,90,810,8051,-2412,0,1,0
2025-01-08 14:01:12.082805,226,-74,90,810,8051,-2412,0,1,0
2025-01-08 14:01:12.084056,226,-74,90,810,8051,-2412,0,1,0
2025-01-08 14:01:12.085318,199,-122,133,1027,7874,-2708,0,1,0
2025-01-08 14:01:12.086577,199,-122,133,1027,7874,-2708,0,1,0
2025-01-08 14:01:12.087846,199,-122,133,1027,7874,-2708,0,1,0
2025-01-08 14:01:12.089112,161,-154,161,1073,7591,-2898,0,1,0
2025-01-08 14:01:12.090376,161,-154,161,1073,7591,-2898,0,1,0
2025-01-08 14:01:12.091644,161,-154,161,1073,7591,-2898,0,1,0
2025-01-08 14:01:12.092905,107,-176,183,883,7383,-2956,0,1,0
2025-01-08 14:01:12.094165,107,-176,183,883,7383,-2956,0,1,0
2025-01-08 14:01:12.095424,107,-176,183,883,7383,-2956,0,1,0
2025-01-08 14:01:12.096684,49,-193,192,414,7107,-2945,0,1,0
2025-01-08 14:01:12.097944,49,-193,192,414,7107,-2945,0,1,0
2025-01-08 14:01:12.099204,49,-193,192,414,7107,-2945,0,1,0
2025-01-08 14:01:12.100456,-5,-199,192,9,6973,-2877,0,1,0
2025-01-08 14:01:12.101717,-5,-199,192,9,6973,-2877,0,1,0
2025-01-08 14:01:12.102978,-5,-199,192,9,6973,-2877,0,1,0
2025-01-08 14:01:12.104230,-67,-192,184,-194,6929,-2763,0,1,0
2025-01-08 14:01:12.105490,-67,-192,184,-194,6929,-2763,0,1,0
2025-01-08 14:01:12.106600,-67,-192,184,-194,6929,-2763,0,1,0
2025-01-08 14:01:12.107853,-67,-192,184,-194,6929,-2763,0,1,0
2025-01-08 14:01:12.109116,-113,-176,165,-329,7040,-2734,0,1,0
2025-01-08 14:01:12.110375,-113,-176,165,-329,7040,-2734,0,1,0
2025-01-08 14:01:12.111634,-113,-176,165,-329,7040,-2734,0,1,0
2025-01-08 14:01:12.112894,-143,-158,139,-393,7225,-2774,0,1,0
2025-01-08 14:01:12.114152,-143,-158,139,-393,7225,-2774,0,1,0
2025-01-08 14:01:12.115411,-143,-158,139,-393,7225,-2774,0,1,0
2025-01-08 14:01:12.116663,-149,-133,106,-402,7492,-2881,0,1,0
2025-01-08 14:01:12.117923,-149,-133,106,-402,7492,-2881,0,1,0
2025-01-08 14:01:12.119187,-149,-133,106,-402,7492,-2881,0,1,0
2025-01-08 14:01:12.120440,-137,-114,66,-315,7736,-2966,0,1,0
2025-01-08 14:01:12.121702,-137,-114,66,-315,7736,-2966,0,1,0
2025-01-08 14:01:12.122962,-137,-114,66,-315,7736,-2966,0,1,0
2025-01-08 14:01:12.124215,-104,-101,35,-188,7885,-3021,0,1,0
2025-01-08 14:01:12.125479,-104,-101,35,-188,7885,-3021,0,1,0
2025-01-08 14:01:12.126739,-104,-101,35,-188,7885,-3021,0,1,0
2025-01-08 14:01:12.127998,-104,-101,35,-188,7885,-3021,0,1,0
2025-01-08 14:01:12.129256,-54,-92,4,-126,8071,-3061,0,1,0
2025-01-08 14:01:12.130518,-54,-92,4,-126,8071,-3061,0,1,0
2025-01-08 14:01:12.131776,-54,-92,4,-126,8071,-3061,0,1,0
2025-01-08 14:01:12.133036,5,-84,-17,-107,8155,-3101,0,1,0
2025-01-08 14:01:12.134306,5,-84,-17,-107,8155,-3101,0,1,0
2025-01-08 14:01:12.135565,5,-84,-17,-107,8155,-3101,0,1,0
2025-01-08 14:01:12.136824,68,-80,-28,-67,8253,-3084,0,1,0
2025-01-08 14:01:12.138004,68,-80,-28,-67,8253,-3084,0,1,0
2025-01-08 14:01:12.139271,68,-80,-28,-67,8253,-3084,0,1,0
2025-01-08 14:01:12.140524,140,-80,-34,-40,8283,-3032,0,1,0
2025-01-08 14:01:12.141790,140,-80,-34,-40,8283,-3032,0,1,0
2025-01-08 14:01:12.143049,140,-80,-34,-40,8283,-3032,0,1,0
2025-01-08 14:01:12.144304,209,-86,-36,-58,8299,-3029,0,1,0
2025-01-08 14:01:12.145567,209,-86,-36,-58,8299,-3029,0,1,0
2025-01-08 14:01:12.146827,209,-86,-36,-58,8299,-3029,0,1,0
2025-01-08 14:01:12.148142,270,-87,-39,-39,8257,-3036,0,1,0
2025-01-08 14:01:12.149403,270,-87,-39,-39,8257,-3036,0,1,0
2025-01-08 14:01:12.150655,270,-87,-39,-39,8257,-3036,0,1,0
2025-01-08 14:01:12.151914,270,-87,-39,-39,8257,-3036,0,1,0
2025-01-08 14:01:12.153167,318,-93,-46,11,8179,-3041,0,1,0
2025-01-08 14:01:12.154428,318,-93,-46,11,8179,-3041,0,1,0
2025-01-08 14:01:12.155697,318,-93,-46,11,8179,-3041,0,1,0
2025-01-08 14:01:12.156948,360,-100,-62,56,8022,-3054,0,1,0
2025-01-08 14:01:12.158201,360,-100,-62,56,8022,-3054,0,1,0
2025-01-08 14:01:12.159455,360,-100,-62,56,8022,-3054,0,1,0
2025-01-08 14:01:12.160710,383,-108,-85,60,7886,-3069,0,1,0
2025-01-08 14:01:12.161966,383,-108,-85,60,7886,-3069,0,1,0
2025-01-08 14:01:12.163219,383,-108,-85,60,7886,-3069,0,1,0
2025-01-08 14:01:12.164473,390,-116,-122,47,7699,-3086,0,1,0
2025-01-08 14:01:12.165734,390,-116,-122,47,7699,-3086,0,1,0
2025-01-08 14:01:12.166995,390,-116,-122,47,7699,-3086,0,1,0
2025-01-08 14:01:12.168309,383,-123,-170,79,7435,-3106,0,1,0
2025-01-08 14:01:12.169568,383,-123,-170,79,7435,-3106,0,1,0
2025-01-08 14:01:12.170827,383,-123,-170,79,7435,-3106,0,1,0
2025-01-08 14:01:12.172145,367,-129,-229,94,7277,-3098,0,1,0
2025-01-08 14:01:12.173266,367,-129,-229,94,7277,-3098,0,1,0
2025-01-08 14:01:12.174524,367,-129,-229,94,7277,-3098,0,1,0
2025-01-08 14:01:12.175786,367,-129,-229,94,7277,-3098,0,1,0
2025-01-08 14:01:12.177046,340,-132,-292,142,7182,-3147,0,1,0
2025-01-08 14:01:12.178306,340,-132,-292,142,7182,-3147,0,1,0
2025-01-08 14:01:12.179566,340,-132,-292,142,7182,-3147,0,1,0
2025-01-08 14:01:12.180826,306,-135,-364,223,7043,-3165,0,1,0
2025-01-08 14:01:12.182085,306,-135,-364,223,7043,-3165,0,1,0
2025-01-08 14:01:12.183345,306,-135,-364,223,7043,-3165,0,1,0
2025-01-08 14:01:12.184600,261,-143,-431,284,6898,-3193,0,1,0
2025-01-08 14:01:12.185861,261,-143,-431,284,6898,-3193,0,1,0
2025-01-08 14:01:12.187118,261,-143,-431,284,6898,-3193,0,1,0
2025-01-08 14:01:12.188371,218,-158,-487,272,6887,-3199,0,1,0
2025-01-08 14:01:12.189634,218,-158,-487,272,6887,-3199,0,1,0
2025-01-08 14:01:12.190892,218,-158,-487,272,6887,-3199,0,1,0
2025-01-08 14:01:12.192149,168,-185,-539,175,6929,-3153,0,1,0
2025-01-08 14:01:12.193410,168,-185,-539,175,6929,-3153,0,1,0
2025-01-08 14:01:12.194669,168,-185,-539,175,6929,-3153,0,1,0
2025-01-08 14:01:12.195933,168,-185,-539,175,6929,-3153,0,1,0
2025-01-08 14:01:12.197193,131,-213,-585,20,6937,-3175,0,1,0
2025-01-08 14:01:12.198452,131,-213,-585,20,6937,-3175,0,1,0
2025-01-08 14:01:12.199712,131,-213,-585,20,6937,-3175,0,1,0
2025-01-08 14:01:12.200971,100,-239,-613,-213,6940,-3193,0,1,0
2025-01-08 14:01:12.202232,100,-239,-613,-213,6940,-3193,0,1,0
2025-01-08 14:01:12.203492,100,-239,-613,-213,6940,-3193,0,1,0
2025-01-08 14:01:12.204751,67,-256,-628,-466,7020,-3242,0,1,0
2025-01-08 14:01:12.206012,67,-256,-628,-466,7020,-3242,0,1,0
2025-01-08 14:01:12.207271,67,-256,-628,-466,7020,-3242,0,1,0
2025-01-08 14:01:12.208524,45,-262,-628,-778,7193,-3360,0,1,0
2025-01-08 14:01:12.209787,45,-262,-628,-778,7193,-3360,0,1,0
2025-01-08 14:01:12.211046,45,-262,-628,-778,7193,-3360,0,1,0
2025-01-08 14:01:12.212320,39,-262,-619,-968,7353,-3397,0,1,0
2025-01-08 14:01:12.213586,39,-262,-619,-968,7353,-3397,0,1,0
2025-01-08 14:01:12.214849,39,-262,-619,-968,7353,-3397,0,1,0
2025-01-08 14:01:12.216099,39,-262,-619,-968,7353,-3397,0,1,0
2025-01-08 14:01:12.217353,43,-252,-600,-1053,7470,-3501,0,1,0
2025-01-08 14:01:12.218615,43,-252,-600,-1053,7470,-3501,0,1,0
2025-01-08 14:01:12.219900,43,-252,-600,-1053,7470,-3501,0,1,0
2025-01-08 14:01:12.221176,58,-237,-572,-1105,7550,-3612,0,1,0
2025-01-08 14:01:12.222451,58,-237,-572,-1105,7550,-3612,0,1,0
2025-01-08 14:01:12.223701,58,-237,-572,-1105,7550,-3612,0,1,0
2025-01-08 14:01:12.224965,65,-220,-544,-1102,7608,-3728,0,1,0
2025-01-08 14:01:12.226228,65,-220,-544,-1102,7608,-3728,0,1,0
2025-01-08 14:01:12.227487,65,-220,-544,-1102,7608,-3728,0,1,0
2025-01-08 14:01:12.228750,81,-196,-508,-1174,7761,-3860,0,1,0
2025-01-08 14:01:12.230021,81,-196,-508,-1174,7761,-3860,0,1,0
2025-01-08 14:01:12.231279,81,-196,-508,-1174,7761,-3860,0,1,0
2025-01-08 14:01:12.232548,106,-165,-474,-1306,7805,-3913,0,1,0
2025-01-08 14:01:12.233816,106,-165,-474,-1306,7805,-3913,0,1,0
2025-01-08 14:01:12.235074,106,-165,-474,-1306,7805,-3913,0,1,0
2025-01-08 14:01:12.236342,130,-131,-450,-1406,7764,-3970,0,1,0
2025-01-08 14:01:12.237610,130,-131,-450,-1406,7764,-3970,0,1,0
2025-01-08 14:01:12.238871,130,-131,-450,-1406,7764,-3970,0,1,0
2025-01-08 14:01:12.240034,130,-131,-450,-1406,7764,-3970,0,1,0
2025-01-08 14:01:12.241296,152,-90,-435,-1436,7650,-3982,0,1,0
2025-01-08 14:01:12.242555,152,-90,-435,-1436,7650,-3982,0,1,0
2025-01-08 14:01:12.243829,152,-90,-435,-1436,7650,-3982,0,1,0
2025-01-08 14:01:12.245085,158,-51,-420,-1404,7376,-4004,0,1,0
2025-01-08 14:01:12.246345,158,-51,-420,-1404,7376,-4004,0,1,0
2025-01-08 14:01:12.247616,158,-51,-420,-1404,7376,-4004,0,1,0
2025-01-08 14:01:12.248885,150,-19,-417,-1391,7209,-4006,0,1,0
2025-01-08 14:01:12.250181,150,-19,-417,-1391,7209,-4006,0,1,0
2025-01-08 14:01:12.251446,150,-19,-417,-1391,7209,-4006,0,1,0
2025-01-08 14:01:12.252707,127,5,-404,-1305,7145,-3891,0,1,0
2025-01-08 14:01:12.253967,127,5,-404,-1305,7145,-3891,0,1,0
2025-01-08 14:01:12.255231,127,5,-404,-1305,7145,-3891,0,1,0
2025-01-08 14:01:12.256504,99,20,-384,-1191,7163,-3787,0,1,0
2025-01-08 14:01:12.257768,99,20,-384,-1191,7163,-3787,0,1,0
2025-01-08 14:01:12.259028,99,20,-384,-1191,7163,-3787,0,1,0
2025-01-08 14:01:12.260474,75,32,-363,-1123,7237,-3661,0,1,0
2025-01-08 14:01:12.261739,75,32,-363,-1123,7237,-3661,0,1,0
2025-01-08 14:01:12.262997,75,32,-363,-1123,7237,-3661,0,1,0
2025-01-08 14:01:12.264414,56,34,-331,-998,7375,-3524,0,1,0
2025-01-08 14:01:12.265682,56,34,-331,-998,7375,-3524,0,1,0
2025-01-08 14:01:12.266944,56,34,-331,-998,7375,-3524,0,1,0
2025-01-08 14:01:12.268488,37,34,-295,-890,7479,-3379,0,1,0
2025-01-08 14:01:12.269759,37,34,-295,-890,7479,-3379,0,1,0
2025-01-08 14:01:12.271026,37,34,-295,-890,7479,-3379,0,1,0
2025-01-08 14:01:12.272272,37,34,-295,-890,7479,-3379,0,1,0
2025-01-08 14:01:12.273566,24,31,-256,-783,7621,-3260,0,1,0
2025-01-08 14:01:12.274835,24,31,-256,-783,7621,-3260,0,1,0
2025-01-08 14:01:12.276098,24,31,-256,-783,7621,-3260,0,1,0
2025-01-08 14:01:12.277347,13,22,-208,-679,7711,-3215,0,1,0
2025-01-08 14:01:12.278608,13,22,-208,-679,7711,-3215,0,1,0
2025-01-08 14:01:12.279869,13,22,-208,-679,7711,-3215,0,1,0
2025-01-08 14:01:12.281130,-1,11,-159,-645,7762,-3174,0,1,0
2025-01-08 14:01:12.282396,-1,11,-159,-645,7762,-3174,0,1,0
2025-01-08 14:01:12.283668,-1,11,-159,-645,7762,-3174,0,1,0
2025-01-08 14:01:12.284934,-20,0,-116,-597,7793,-3149,0,1,0
2025-01-08 14:01:12.286207,-20,0,-116,-597,7793,-3149,0,1,0
2025-01-08 14:01:12.287484,-20,0,-116,-597,7793,-3149,0,1,0
2025-01-08 14:01:12.288748,-41,-11,-75,-629,7835,-3123,0,1,0
2025-01-08 14:01:12.290014,-41,-11,-75,-629,7835,-3123,0,1,0
2025-01-08 14:01:12.291186,-41,-11,-75,-629,7835,-3123,0,1,0
2025-01-08 14:01:12.292475,-57,-15,-39,-673,7874,-3091,0,1,0
2025-01-08 14:01:12.293746,-57,-15,-39,-673,7874,-3091,0,1,0
2025-01-08 14:01:12.295006,-57,-15,-39,-673,7874,-3091,0,1,0
2025-01-08 14:01:12.297346,-70,-22,-12,-679,7834,-3120,0,1,0
2025-01-08 14:01:12.298595,-70,-22,-12,-679,7834,-3120,0,1,0
2025-01-08 14:01:12.299852,-70,-22,-12,-679,7834,-3120,0,1,0
2025-01-08 14:01:12.301114,-75,-33,10,-664,7817,-3145,0,1,0
2025-01-08 14:01:12.302374,-75,-33,10,-664,7817,-3145,0,1,0
2025-01-08 14:01:12.303662,-75,-33,10,-664,7817,-3145,0,1,0
2025-01-08 14:01:12.304710,-75,-43,34,-717,7855,-3188,0,1,0
2025-01-08 14:01:12.305959,-75,-43,34,-717,7855,-3188,0,1,0
2025-01-08 14:01:12.307214,-75,-43,34,-717,7855,-3188,0,1,0
2025-01-08 14:01:12.308465,-68,-48,56,-761,7948,-3238,0,1,0
2025-01-08 14:01:12.309738,-68,-48,56,-761,7948,-3238,0,1,0
2025-01-08 14:01:12.310997,-68,-48,56,-761,7948,-3238,0,1,0
2025-01-08 14:01:12.312251,-52,-54,76,-860,8033,-3291,0,1,0
2025-01-08 14:01:12.313523,-52,-54,76,-860,8033,-3291,0,1,0
2025-01-08 14:01:12.314814,-52,-54,76,-860,8033,-3291,0,1,0
2025-01-08 14:01:12.316048,-52,-54,76,-860,8033,-3291,0,1,0
2025-01-08 14:01:12.317220,-33,-54,98,-991,8099,-3393,0,1,0
2025-01-08 14:01:12.318482,-33,-54,98,-991,8099,-3393,0,1,0
2025-01-08 14:01:12.319516,-33,-54,98,-991,8099,-3393,0,1,0
2025-01-08 14:01:12.320766,-7,-52,110,-1050,8212,-3421,0,1,0
2025-01-08 14:01:12.322037,-7,-52,110,-1050,8212,-3421,0,1,0
2025-01-08 14:01:12.323293,-7,-52,110,-1050,8212,-3421,0,1,0
2025-01-08 14:01:12.324548,26,-49,124,-1094,8242,-3438,0,1,0
2025-01-08 14:01:12.325808,26,-49,124,-1094,8242,-3438,0,1,0
2025-01-08 14:01:12.327077,26,-49,124,-1094,8242,-3438,0,1,0
2025-01-08 14:01:12.328329,63,-46,132,-1086,8211,-3476,0,1,0
2025-01-08 14:01:12.329588,63,-46,132,-1086,8211,-3476,0,1,0
2025-01-08 14:01:12.330602,63,-46,132,-1086,8211,-3476,0,1,0
2025-01-08 14:01:12.331903,63,-46,132,-1086,8211,-3476,0,1,0
2025-01-08 14:01:12.333162,99,-41,127,-1068,8134,-3547,0,1,0
2025-01-08 14:01:12.334420,99,-41,127,-1068,8134,-3547,0,1,0
2025-01-08 14:01:12.335677,99,-41,127,-1068,8134,-3547,0,1,0
2025-01-08 14:01:12.336934,131,-37,120,-1012,7969,-3577,0,1,0
2025-01-08 14:01:12.338205,131,-37,120,-1012,7969,-3577,0,1,0
2025-01-08 14:01:12.339460,131,-37,120,-1012,7969,-3577,0,1,0
2025-01-08 14:01:12.340470,157,-30,109,-1006,7837,-3663,0,1,0
2025-01-08 14:01:12.341728,157,-30,109,-1006,7837,-3663,0,1,0
2025-01-08 14:01:12.342987,157,-30,109,-1006,7837,-3663,0,1,0
2025-01-08 14:01:12.344250,177,-27,99,-952,7718,-3697,0,1,0
2025-01-08 14:01:12.345510,177,-27,99,-952,7718,-3697,0,1,0
2025-01-08 14:01:12.346777,177,-27,99,-952,7718,-3697,0,1,0
2025-01-08 14:01:12.348041,177,-27,99,-952,7718,-3697,0,1,0
2025-01-08 14:01:12.349303,191,-23,85,-917,7556,-3699,0,1,0
2025-01-08 14:01:12.350359,191,-23,85,-917,7556,-3699,0,1,0
2025-01-08 14:01:12.351620,191,-23,85,-917,7556,-3699,0,1,0
2025-01-08 14:01:12.352878,188,-24,72,-883,7433,-3720,0,1,0
2025-01-08 14:01:12.354143,188,-24,72,-883,7433,-3720,0,1,0
2025-01-08 14:01:12.355401,188,-24,72,-883,7433,-3720,0,1,0
2025-01-08 14:01:12.356663,181,-18,58,-843,7339,-3705,0,1,0
2025-01-08 14:01:12.357942,181,-18,58,-843,7339,-3705,0,1,0
2025-01-08 14:01:12.359199,181,-18,58,-843,7339,-3705,0,1,0
2025-01-08 14:01:12.360467,165,-19,39,-810,7318,-3666,0,1,0
2025-01-08 14:01:12.361732,165,-19,39,-810,7318,-3666,0,1,0
2025-01-08 14:01:12.362999,165,-19,39,-810,7318,-3666,0,1,0
2025-01-08 14:01:12.364379,143,-18,23,-801,7279,-3653,0,1,0
2025-01-08 14:01:12.365485,143,-18,23,-801,7279,-3653,0,1,0
2025-01-08 14:01:12.366749,143,-18,23,-801,7279,-3653,0,1,0
2025-01-08 14:01:12.368022,143,-18,23,-801,7279,-3653,0,1,0
2025-01-08 14:01:12.369280,116,-18,11,-769,7262,-3644,0,1,0
2025-01-08 14:01:12.370542,116,-18,11,-769,7262,-3644,0,1,0
2025-01-08 14:01:12.371807,116,-18,11,-769,7262,-3644,0,1,0
2025-01-08 14:01:12.373077,91,-16,3,-782,7312,-3645,0,1,0
2025-01-08 14:01:12.374342,91,-16,3,-782,7312,-3645,0,1,0
2025-01-08 14:01:12.375606,91,-16,3,-782,7312,-3645,0,1,0
2025-01-08 14:01:12.376882,72,-16,-5,-791,7368,-3608,0,1,0
2025-01-08 14:01:12.378145,72,-16,-5,-791,7368,-3608,0,1,0
2025-01-08 14:01:12.379407,72,-16,-5,-791,7368,-3608,0,1,0
2025-01-08 14:01:12.380668,58,-14,-6,-791,7446,-3630,0,1,0
2025-01-08 14:01:12.381933,58,-14,-6,-791,7446,-3630,0,1,0
2025-01-08 14:01:12.383192,58,-14,-6,-791,7446,-3630,0,1,0
2025-01-08 14:01:12.384460,51,-9,-4,-821,7480,-3635,0,1,0
2025-01-08 14:01:12.385727,51,-9,-4,-821,7480,-3635,0,1,0
2025-01-08 14:01:12.386985,51,-9,-4,-821,7480,-3635,0,1,0
2025-01-08 14:01:12.388387,52,-6,0,-840,7556,-3656,0,1,0
2025-01-08 14:01:12.389657,52,-6,0,-840,7556,-3656,0,1,0
2025-01-08 14:01:12.390923,52,-6,0,-840,7556,-3656,0,1,0
2025-01-08 14:01:12.392424,56,4,2,-810,7606,-3654,0,1,0
2025-01-08 14:01:12.393686,56,4,2,-810,7606,-3654,0,1,0
2025-01-08 14:01:12.394944,56,4,2,-810,7606,-3654,0,1,0
2025-01-08 14:01:12.396423,73,13,10,-808,7610,-3599,0,1,0
2025-01-08 14:01:12.397692,73,13,10,-808,7610,-3599,0,1,0
2025-01-08 14:01:12.398959,73,13,10,-808,7610,-3599,0,1,0
2025-01-08 14:01:12.400460,85,26,10,-824,7568,-3591,0,1,0
2025-01-08 14:01:12.401719,85,26,10,-824,7568,-3591,0,1,0
2025-01-08 14:01:12.402978,85,26,10,-824,7568,-3591,0,1,0
2025-01-08 14:01:12.404428,98,34,4,-849,7550,-3555,0,1,0
2025-01-08 14:01:12.405660,98,34,4,-849,7550,-3555,0,1,0
2025-01-08 14:01:12.406900,98,34,4,-849,7550,-3555,0,1,0
2025-01-08 14:01:12.408169,98,34,4,-849,7550,-3555,0,1,0
2025-01-08 14:01:12.409437,111,46,2,-886,7512,-3539,0,1,0
2025-01-08 14:01:12.410708,111,46,2,-886,7512,-3539,0,1,0
2025-01-08 14:01:12.412059,111,46,2,-886,7512,-3539,0,1,0
2025-01-08 14:01:12.413327,119,58,-2,-945,7492,-3523,0,1,0
2025-01-08 14:01:12.414597,119,58,-2,-945,7492,-3523,0,1,0
2025-01-08 14:01:12.415871,119,58,-2,-945,7492,-3523,0,1,0
2025-01-08 14:01:12.417138,128,70,-3,-947,7507,-3547,0,1,0
2025-01-08 14:01:12.418404,128,70,-3,-947,7507,-3547,0,1,0
2025-01-08 14:01:12.419669,128,70,-3,-947,7507,-3547,0,1,0
2025-01-08 14:01:12.420934,137,86,2,-957,7523,-3528,0,1,0
2025-01-08 14:01:12.422059,137,86,2,-957,7523,-3528,0,1,0
2025-01-08 14:01:12.423402,137,86,2,-957,7523,-3528,0,1,0
2025-01-08 14:01:12.424592,137,86,2,-957,7523,-3528,0,1,0
2025-01-08 14:01:12.425873,143,100,7,-993,7506,-3608,0,1,0
2025-01-08 14:01:12.427142,143,100,7,-993,7506,-3608,0,1,0
2025-01-08 14:01:12.428395,144,113,13,-1010,7496,-3639,0,1,0
2025-01-08 14:01:12.429655,144,113,13,-1010,7496,-3639,0,1,0
2025-01-08 14:01:12.430932,144,113,13,-1010,7496,-3639,0,1,0
2025-01-08 14:01:12.432199,144,113,13,-1010,7496,-3639,0,1,0
2025-01-08 14:01:12.433471,149,132,14,-1034,7436,-3691,0,1,0
2025-01-08 14:01:12.434799,149,132,14,-1034,7436,-3691,0,1,0
2025-01-08 14:01:12.436597,143,152,13,-1049,7393,-3743,0,1,0
2025-01-08 14:01:12.437870,143,152,13,-1049,7393,-3743,0,1,0
2025-01-08 14:01:12.439138,143,152,13,-1049,7393,-3743,0,1,0
2025-01-08 14:01:12.440393,135,166,14,-1008,7361,-3740,0,1,0
2025-01-08 14:01:12.441653,135,166,14,-1008,7361,-3740,0,1,0
2025-01-08 14:01:12.442913,135,166,14,-1008,7361,-3740,0,1,0
2025-01-08 14:01:12.444247,126,178,15,-940,7417,-3757,0,1,0
2025-01-08 14:01:12.445507,126,178,15,-940,7417,-3757,0,1,0
2025-01-08 14:01:12.446767,126,178,15,-940,7417,-3757,0,1,0
2025-01-08 14:01:12.448029,126,178,15,-940,7417,-3757,0,1,0
2025-01-08 14:01:12.449289,116,187,19,-846,7432,-3740,0,1,0
2025-01-08 14:01:12.450589,116,187,19,-846,7432,-3740,0,1,0
2025-01-08 14:01:12.452042,116,187,19,-846,7432,-3740,0,1,0
2025-01-08 14:01:12.453388,110,192,18,-889,7503,-3718,0,1,0
2025-01-08 14:01:12.454667,110,192,18,-889,7503,-3718,0,1,0
2025-01-08 14:01:12.455951,110,192,18,-889,7503,-3718,0,1,0
2025-01-08 14:01:12.457191,110,196,13,-938,7515,-3676,0,1,0
2025-01-08 14:01:12.458461,110,196,13,-938,7515,-3676,0,1,0
2025-01-08 14:01:12.459724,110,196,13,-938,7515,-3676,0,1,0
2025-01-08 14:01:12.460986,106,193,7,-928,7565,-3629,0,1,0
2025-01-08 14:01:12.462252,106,193,7,-928,7565,-3629,0,1,0
2025-01-08 14:01:12.463518,106,193,7,-928,7565,-3629,0,1,0
2025-01-08 14:01:12.464784,110,191,1,-910,7566,-3616,0,1,0
2025-01-08 14:01:12.466051,110,191,1,-910,7566,-3616,0,1,0
2025-01-08 14:01:12.467315,110,191,1,-910,7566,-3616,0,1,0
2025-01-08 14:01:12.468577,121,186,-7,-913,7521,-3612,0,1,0
2025-01-08 14:01:12.469836,121,186,-7,-913,7521,-3612,0,1,0
2025-01-08 14:01:12.471097,121,186,-7,-913,7521,-3612,0,1,0
2025-01-08 14:01:12.472364,132,179,-14,-995,7496,-3603,0,1,0
2025-01-08 14:01:12.473628,132,179,-14,-995,7496,-3603,0,1,0
2025-01-08 14:01:12.474898,132,179,-14,-995,7496,-3603,0,1,0
2025-01-08 14:01:12.476126,132,179,-14,-995,7496,-3603,0,1,0
2025-01-08 14:01:12.477374,142,170,-21,-1033,7422,-3587,0,1,0
2025-01-08 14:01:12.478638,142,170,-21,-1033,7422,-3587,0,1,0
2025-01-08 14:01:12.479907,142,170,-21,-1033,7422,-3587,0,1,0
2025-01-08 14:01:12.481181,148,158,-30,-976,7371,-3631,0,1,0
2025-01-08 14:01:12.482452,148,158,-30,-976,7371,-3631,0,1,0
2025-01-08 14:01:12.483718,148,158,-30,-976,7371,-3631,0,1,0
2025-01-08 14:01:12.484984,155,146,-35,-898,7361,-3670,0,1,0
2025-01-08 14:01:12.486252,155,146,-35,-898,7361,-3670,0,1,0
2025-01-08 14:01:12.487525,155,146,-35,-898,7361,-3670,0,1,0
2025-01-08 14:01:12.488786,161,129,-43,-949,7371,-3692,0,1,0
2025-01-08 14:01:12.490046,161,129,-43,-949,7371,-3692,0,1,0
2025-01-08 14:01:12.491307,161,129,-43,-949,7371,-3692,0,1,0
2025-01-08 14:01:12.492568,167,113,-55,-997,7342,-3673,0,1,0
2025-01-08 14:01:12.493833,167,113,-55,-997,7342,-3673,0,1,0
2025-01-08 14:01:12.495094,167,113,-55,-997,7342,-3673,0,1,0
2025-01-08 14:01:12.496363,166,96,-67,-964,7234,-3678,0,1,0
2025-01-08 14:01:12.497627,166,96,-67,-964,7234,-3678,0,1,0
2025-01-08 14:01:12.498899,166,96,-67,-964,7234,-3678,0,1,0
2025-01-08 14:01:12.500174,166,96,-67,-964,7234,-3678,0,1,0
2025-01-08 14:01:12.501441,161,85,-80,-962,7140,-3720,0,1,0
2025-01-08 14:01:12.502711,161,85,-80,-962,7140,-3720,0,1,0
2025-01-08 14:01:12.503993,161,85,-80,-962,7140,-3720,0,1,0
2025-01-08 14:01:12.505329,150,73,-93,-934,7097,-3746,0,1,0
2025-01-08 14:01:12.506601,150,73,-93,-934,7097,-3746,0,1,0
2025-01-08 14:01:12.507867,150,73,-93,-934,7097,-3746,0,1,0
2025-01-08 14:01:12.509131,138,59,-99,-918,7019,-3788,0,1,0
2025-01-08 14:01:12.510389,138,59,-99,-918,7019,-3788,0,1,0
2025-01-08 14:01:12.511647,138,59,-99,-918,7019,-3788,0,1,0
2025-01-08 14:01:12.512726,118,47,-109,-880,6981,-3788,0,1,0
2025-01-08 14:01:12.513989,118,47,-109,-880,6981,-3788,0,1,0
2025-01-08 14:01:12.515253,118,47,-109,-880,6981,-3788,0,1,0
2025-01-08 14:01:12.516574,93,33,-110,-827,6915,-3758,0,1,0
2025-01-08 14:01:12.517842,93,33,-110,-827,6915,-3758,0,1,0
2025-01-08 14:01:12.519105,93,33,-110,-827,6915,-3758,0,1,0
2025-01-08 14:01:12.520466,69,18,-112,-800,6903,-3767,0,1,0
2025-01-08 14:01:12.521736,69,18,-112,-800,6903,-3767,0,1,0
2025-01-08 14:01:12.523001,69,18,-112,-800,6903,-3767,0,1,0
2025-01-08 14:01:12.524433,50,7,-113,-824,6894,-3729,0,1,0
2025-01-08 14:01:12.525692,50,7,-113,-824,6894,-3729,0,1,0
2025-01-08 14:01:12.526953,50,7,-113,-824,6894,-3729,0,1,0
2025-01-08 14:01:12.528226,50,7,-113,-824,6894,-3729,0,1,0
2025-01-08 14:01:12.529499,33,-5,-107,-840,6901,-3697,0,1,0
2025-01-08 14:01:12.530758,33,-5,-107,-840,6901,-3697,0,1,0
2025-01-08 14:01:12.532028,33,-5,-107,-840,6901,-3697,0,1,0
2025-01-08 14:01:12.533298,12,-15,-102,-834,6898,-3684,0,1,0
2025-01-08 14:01:12.534566,12,-15,-102,-834,6898,-3684,0,1,0
2025-01-08 14:01:12.535849,12,-15,-102,-834,6898,-3684,0,1,0
2025-01-08 14:01:12.537099,-5,-20,-95,-828,6934,-3681,0,1,0
2025-01-08 14:01:12.538372,-5,-20,-95,-828,6934,-3681,0,1,0
2025-01-08 14:01:12.539610,-5,-20,-95,-828,6934,-3681,0,1,0
2025-01-08 14:01:12.540886,-23,-29,-91,-804,6972,-3673,0,1,0
2025-01-08 14:01:12.542162,-23,-29,-91,-804,6972,-3673,0,1,0
2025-01-08 14:01:12.543440,-23,-29,-91,-804,6972,-3673,0,1,0
2025-01-08 14:01:12.544719,-34,-37,-88,-795,7148,-3624,0,1,0
2025-01-08 14:01:12.545992,-34,-37,-88,-795,7148,-3624,0,1,0
2025-01-08 14:01:12.547258,-34,-37,-88,-795,7148,-3624,0,1,0
2025-01-08 14:01:12.548539,-43,-39,-83,-790,7251,-3593,0,1,0
2025-01-08 14:01:12.549816,-43,-39,-83,-790,7251,-3593,0,1,0
2025-01-08 14:01:12.551296,-43,-39,-83,-790,7251,-3593,0,1,0
2025-01-08 14:01:12.552791,-42,-40,-79,-785,7286,-3576,0,1,0
2025-01-08 14:01:12.554060,-42,-40,-79,-785,7286,-3576,0,1,0
2025-01-08 14:01:12.555321,-42,-40,-79,-785,7286,-3576,0,1,0
2025-01-08 14:01:12.556575,-40,-43,-73,-821,7355,-3524,0,1,0
2025-01-08 14:01:12.557849,-40,-43,-73,-821,7355,-3524,0,1,0
2025-01-08 14:01:12.559116,-40,-43,-73,-821,7355,-3524,0,1,0
2025-01-08 14:01:12.560376,-36,-41,-64,-972,7341,-3464,0,1,0
2025-01-08 14:01:12.561642,-36,-41,-64,-972,7341,-3464,0,1,0
2025-01-08 14:01:12.562902,-36,-41,-64,-972,7341,-3464,0,1,0
2025-01-08 14:01:12.563996,-36,-41,-64,-972,7341,-3464,0,1,0
2025-01-08 14:01:12.565237,-36,-42,-49,-964,7312,-3411,0,1,0
2025-01-08 14:01:12.566518,-36,-42,-49,-964,7312,-3411,0,1,0
2025-01-08 14:01:12.567816,-36,-42,-49,-964,7312,-3411,0,1,0
2025-01-08 14:01:12.569069,-37,-38,-40,-939,7321,-3434,0,1,0
2025-01-08 14:01:12.570331,-37,-38,-40,-939,7321,-3434,0,1,0
2025-01-08 14:01:12.571588,-37,-38,-40,-939,7321,-3434,0,1,0
2025-01-08 14:01:12.572843,-36,-33,-30,-941,7361,-3467,0,1,0
2025-01-08 14:01:12.574104,-36,-33,-30,-941,7361,-3467,0,1,0
2025-01-08 14:01:12.575368,-36,-33,-30,-941,7361,-3467,0,1,0
2025-01-08 14:01:12.576626,-32,-31,-19,-961,7449,-3475,0,1,0
2025-01-08 14:01:12.577887,-32,-31,-19,-961,7449,-3475,0,1,0
2025-01-08 14:01:12.579150,-32,-31,-19,-961,7449,-3475,0,1,0
2025-01-08 14:01:12.580408,-26,-31,-14,-944,7453,-3442,0,1,0
2025-01-08 14:01:12.581675,-26,-31,-14,-944,7453,-3442,0,1,0
2025-01-08 14:01:12.582943,-26,-31,-14,-944,7453,-3442,0,1,0
2025-01-08 14:01:12.584323,-20,-32,-8,-949,7529,-3405,0,1,0
2025-01-08 14:01:12.585592,-20,-32,-8,-949,7529,-3405,0,1,0
2025-01-08 14:01:12.586853,-20,-32,-8,-949,7529,-3405,0,1,0
2025-01-08 14:01:12.588114,-20,-32,-8,-949,7529,-3405,0,1,0
2025-01-08 14:01:12.589375,-9,-33,-8,-901,7589,-3403,0,1,0
2025-01-08 14:01:12.590635,-9,-33,-8,-901,7589,-3403,0,1,0
2025-01-08 14:01:12.591907,-9,-33,-8,-901,7589,-3403,0,1,0
2025-01-08 14:01:12.593169,3,-31,-9,-986,7621,-3400,0,1,0
2025-01-08 14:01:12.594431,3,-31,-9,-986,7621,-3400,0,1,0
2025-01-08 14:01:12.595689,3,-31,-9,-986,7621,-3400,0,1,0
2025-01-08 14:01:12.596952,8,-36,-9,-974,7579,-3420,0,1,0
2025-01-08 14:01:12.598228,8,-36,-9,-974,7579,-3420,0,1,0
2025-01-08 14:01:12.599507,8,-36,-9,-974,7579,-3420,0,1,0
2025-01-08 14:01:12.600767,6,-35,-18,-922,7626,-3466,0,1,0
2025-01-08 14:01:12.602034,6,-35,-18,-922,7626,-3466,0,1,0
2025-01-08 14:01:12.603296,6,-35,-18,-922,7626,-3466,0,1,0
2025-01-08 14:01:12.604559,8,-37,-27,-854,7597,-3513,0,1,0
2025-01-08 14:01:12.605825,8,-37,-27,-854,7597,-3513,0,1,0
2025-01-08 14:01:12.607086,8,-37,-27,-854,7597,-3513,0,1,0
2025-01-08 14:01:12.608507,9,-39,-40,-838,7617,-3549,0,1,0
2025-01-08 14:01:12.609767,9,-39,-40,-838,7617,-3549,0,1,0
2025-01-08 14:01:12.611033,9,-39,-40,-838,7617,-3549,0,1,0
2025-01-08 14:01:12.612443,2,-42,-54,-770,7664,-3583,0,1,0
2025-01-08 14:01:12.613717,2,-42,-54,-770,7664,-3583,0,1,0
2025-01-08 14:01:12.614992,2,-42,-54,-770,7664,-3583,0,1,0
2025-01-08 14:01:12.616263,2,-42,-54,-770,7664,-3583,0,1,0
2025-01-08 14:01:12.617533,-2,-44,-69,-749,7694,-3610,0,1,0
2025-01-08 14:01:12.618790,-2,-44,-69,-749,7694,-3610,0,1,0
2025-01-08 14:01:12.620057,-2,-44,-69,-749,7694,-3610,0,1,0
2025-01-08 14:01:12.621323,-6,-47,-86,-704,7721,-3591,0,1,0
2025-01-08 14:01:12.622587,-6,-47,-86,-704,7721,-3591,0,1,0
2025-01-08 14:01:12.623845,-6,-47,-86,-704,7721,-3591,0,1,0
2025-01-08 14:01:12.625113,-12,-50,-103,-653,7733,-3592,0,1,0
2025-01-08 14:01:12.626378,-12,-50,-103,-653,7733,-3592,0,1,0
2025-01-08 14:01:12.627643,-12,-50,-103,-653,7733,-3592,0,1,0
2025-01-08 14:01:12.628912,-8,-55,-118,-763,7756,-3577,0,1,0
2025-01-08 14:01:12.630179,-8,-55,-118,-763,7756,-3577,0,1,0
2025-01-08 14:01:12.631447,-8,-55,-118,-763,7756,-3577,0,1,0
2025-01-08 14:01:12.632711,-19,-59,-129,-724,7777,-3582,0,1,0
2025-01-08 14:01:12.633978,-19,-59,-129,-724,7777,-3582,0,1,0
2025-01-08 14:01:12.635247,-19,-59,-129,-724,7777,-3582,0,1,0
2025-01-08 14:01:12.636520,-19,-64,-145,-725,7869,-3559,0,1,0
2025-01-08 14:01:12.637788,-19,-64,-145,-725,7869,-3559,0,1,0
2025-01-08 14:01:12.639048,-19,-64,-145,-725,7869,-3559,0,1,0
2025-01-08 14:01:12.640489,-8,-62,-163,-698,7929,-3508,0,1,0
2025-01-08 14:01:12.641750,-8,-62,-163,-698,7929,-3508,0,1,0
2025-01-08 14:01:12.643021,-8,-62,-163,-698,7929,-3508,0,1,0
2025-01-08 14:01:12.644426,9,-60,-176,-744,7913,-3467,0,1,0
2025-01-08 14:01:12.645700,9,-60,-176,-744,7913,-3467,0,1,0
2025-01-08 14:01:12.646993,9,-60,-176,-744,7913,-3467,0,1,0
2025-01-08 14:01:12.648260,9,-60,-176,-744,7913,-3467,0,1,0
2025-01-08 14:01:12.649534,26,-59,-181,-752,7867,-3472,0,1,0
2025-01-08 14:01:12.650823,26,-59,-181,-752,7867,-3472,0,1,0
2025-01-08 14:01:12.652108,26,-59,-181,-752,7867,-3472,0,1,0
2025-01-08 14:01:12.653388,47,-59,-189,-730,7854,-3466,0,1,0
2025-01-08 14:01:12.654658,47,-59,-189,-730,7854,-3466,0,1,0
2025-01-08 14:01:12.655928,47,-59,-189,-730,7854,-3466,0,1,0
2025-01-08 14:01:12.657201,62,-58,-193,-718,7777,-3487,0,1,0
2025-01-08 14:01:12.658463,62,-58,-193,-718,7777,-3487,0,1,0
2025-01-08 14:01:12.659719,62,-58,-193,-718,7777,-3487,0,1,0
2025-01-08 14:01:12.660992,73,-60,-197,-697,7739,-3491,0,1,0
2025-01-08 14:01:12.662260,73,-60,-197,-697,7739,-3491,0,1,0
2025-01-08 14:01:12.663526,73,-60,-197,-697,7739,-3491,0,1,0
2025-01-08 14:01:12.664803,83,-63,-196,-685,7673,-3462,0,1,0
2025-01-08 14:01:12.666094,83,-63,-196,-685,7673,-3462,0,1,0
2025-01-08 14:01:12.667317,83,-63,-196,-685,7673,-3462,0,1,0
2025-01-08 14:01:12.668605,88,-67,-198,-714,7624,-3496,0,1,0
2025-01-08 14:01:12.669885,88,-67,-198,-714,7624,-3496,0,1,0
2025-01-08 14:01:12.671166,88,-67,-198,-714,7624,-3496,0,1,0
2025-01-08 14:01:12.672324,88,-67,-198,-714,7624,-3496,0,1,0
2025-01-08 14:01:12.673618,87,-69,-199,-726,7571,-3505,0,1,0
2025-01-08 14:01:12.674884,87,-69,-199,-726,7571,-3505,0,1,0
2025-01-08 14:01:12.676144,87,-69,-199,-726,7571,-3505,0,1,0
2025-01-08 14:01:12.677409,80,-70,-199,-727,7604,-3506,0,1,0
2025-01-08 14:01:12.678688,80,-70,-199,-727,7604,-3506,0,1,0
2025-01-08 14:01:12.680236,80,-70,-199,-727,7604,-3506,0,1,0
2025-01-08 14:01:12.681502,73,-69,-205,-730,7673,-3571,0,1,0
2025-01-08 14:01:12.682763,73,-69,-205,-730,7673,-3571,0,1,0
2025-01-08 14:01:12.684064,73,-69,-205,-730,7673,-3571,0,1,0
2025-01-08 14:01:12.685297,70,-70,-209,-717,7683,-3563,0,1,0
2025-01-08 14:01:12.686556,70,-70,-209,-717,7683,-3563,0,1,0
2025-01-08 14:01:12.687815,70,-70,-209,-717,7683,-3563,0,1,0
2025-01-08 14:01:12.689083,71,-66,-219,-718,7772,-3588,0,1,0
2025-01-08 14:01:12.690339,71,-66,-219,-718,7772,-3588,0,1,0
2025-01-08 14:01:12.691595,71,-66,-219,-718,7772,-3588,0,1,0
2025-01-08 14:01:12.692850,75,-62,-229,-659,7797,-3621,0,1,0
2025-01-08 14:01:12.694108,75,-62,-229,-659,7797,-3621,0,1,0
2025-01-08 14:01:12.695368,75,-62,-229,-659,7797,-3621,0,1,0
2025-01-08 14:01:12.696620,88,-58,-236,-576,7901,-3652,0,1,0
2025-01-08 14:01:12.697884,88,-58,-236,-576,7901,-3652,0,1,0
2025-01-08 14:01:12.699149,88,-58,-236,-576,7901,-3652,0,1,0
2025-01-08 14:01:12.700404,108,-57,-249,-704,7843,-3648,0,1,0
2025-01-08 14:01:12.701663,108,-57,-249,-704,7843,-3648,0,1,0
2025-01-08 14:01:12.702922,108,-57,-249,-704,7843,-3648,0,1,0
2025-01-08 14:01:12.704225,115,-62,-256,-649,7768,-3676,0,1,0
2025-01-08 14:01:12.705489,115,-62,-256,-649,7768,-3676,0,1,0
2025-01-08 14:01:12.706749,115,-62,-256,-649,7768,-3676,0,1,0
2025-01-08 14:01:12.708017,115,-62,-256,-649,7768,-3676,0,1,0
2025-01-08 14:01:12.709282,119,-67,-260,-726,7816,-3734,0,1,0
2025-01-08 14:01:12.710551,119,-67,-260,-726,7816,-3734,0,1,0
2025-01-08 14:01:12.711808,119,-67,-260,-726,7816,-3734,0,1,0
2025-01-08 14:01:12.713071,135,-64,-273,-703,7859,-3686,0,1,0
2025-01-08 14:01:12.714332,135,-64,-273,-703,7859,-3686,0,1,0
2025-01-08 14:01:12.715598,135,-64,-273,-703,7859,-3686,0,1,0
2025-01-08 14:01:12.716859,158,-61,-286,-706,7865,-3698,0,1,0
2025-01-08 14:01:12.718120,158,-61,-286,-706,7865,-3698,0,1,0
2025-01-08 14:01:12.719387,158,-61,-286,-706,7865,-3698,0,1,0
2025-01-08 14:01:12.720646,182,-55,-292,-752,7839,-3660,0,1,0
2025-01-08 14:01:12.721922,182,-55,-292,-752,7839,-3660,0,1,0
2025-01-08 14:01:12.723185,182,-55,-292,-752,7839,-3660,0,1,0
2025-01-08 14:01:12.724446,209,-52,-295,-800,7776,-3631,0,1,0
2025-01-08 14:01:12.725723,209,-52,-295,-800,7776,-3631,0,1,0
2025-01-08 14:01:12.727022,209,-52,-295,-800,7776,-3631,0,1,0
2025-01-08 14:01:12.728356,230,-52,-298,-838,7735,-3598,0,1,0
2025-01-08 14:01:12.729621,230,-52,-298,-838,7735,-3598,0,1,0
2025-01-08 14:01:12.730805,230,-52,-298,-838,7735,-3598,0,1,0
2025-01-08 14:01:12.732116,230,-52,-298,-838,7735,-3598,0,1,0
2025-01-08 14:01:12.733385,248,-53,-299,-851,7733,-3604,0,1,0
2025-01-08 14:01:12.734658,248,-53,-299,-851,7733,-3604,0,1,0
2025-01-08 14:01:12.735918,248,-53,-299,-851,7733,-3604,0,1,0
2025-01-08 14:01:12.737196,265,-49,-301,-883,7699,-3637,0,1,0
2025-01-08 14:01:12.738400,265,-49,-301,-883,7699,-3637,0,1,0
2025-01-08 14:01:12.739668,265,-49,-301,-883,7699,-3637,0,1,0
2025-01-08 14:01:12.740938,283,-48,-302,-837,7677,-3611,0,1,0
2025-01-08 14:01:12.742199,283,-48,-302,-837,7677,-3611,0,1,0
2025-01-08 14:01:12.743464,283,-48,-302,-837,7677,-3611,0,1,0
2025-01-08 14:01:12.744739,297,-47,-308,-855,7587,-3599,0,1,0
2025-01-08 14:01:12.746008,297,-47,-308,-855,7587,-3599,0,1,0
2025-01-08 14:01:12.747259,297,-47,-308,-855,7587,-3599,0,1,0
2025-01-08 14:01:12.748786,301,-48,-310,-854,7472,-3621,0,1,0
2025-01-08 14:01:12.750052,301,-48,-310,-854,7472,-3621,0,1,0
2025-01-08 14:01:12.751317,301,-48,-310,-854,7472,-3621,0,1,0
2025-01-08 14:01:12.752585,306,-54,-311,-883,7362,-3625,0,1,0
2025-01-08 14:01:12.753859,306,-54,-311,-883,7362,-3625,0,1,0
2025-01-08 14:01:12.755133,306,-54,-311,-883,7362,-3625,0,1,0
2025-01-08 14:01:12.756405,302,-54,-316,-947,7208,-3673,0,1,0
2025-01-08 14:01:12.757675,302,-54,-316,-947,7208,-3673,0,1,0
2025-01-08 14:01:12.758951,302,-54,-316,-947,7208,-3673,0,1,0
2025-01-08 14:01:12.760568,291,-58,-320,-990,7155,-3700,0,1,0
2025-01-08 14:01:12.761838,291,-58,-320,-990,7155,-3700,0,1,0
2025-01-08 14:01:12.763091,291,-58,-320,-990,7155,-3700,0,1,0
2025-01-08 14:01:12.764350,277,-57,-323,-1071,7114,-3740,0,1,0
2025-01-08 14:01:12.765604,277,-57,-323,-1071,7114,-3740,0,1,0
2025-01-08 14:01:12.766859,277,-57,-323,-1071,7114,-3740,0,1,0
2025-01-08 14:01:12.768113,277,-57,-323,-1071,7114,-3740,0,1,0
2025-01-08 14:01:12.769368,262,-63,-319,-1116,7087,-3789,0,1,0
2025-01-08 14:01:12.770622,262,-63,-319,-1116,7087,-3789,0,1,0
2025-01-08 14:01:12.771877,262,-63,-319,-1116,7087,-3789,0,1,0
2025-01-08 14:01:12.773130,243,-65,-310,-1163,7074,-3871,0,1,0
2025-01-08 14:01:12.774382,243,-65,-310,-1163,7074,-3871,0,1,0
2025-01-08 14:01:12.775642,243,-65,-310,-1163,7074,-3871,0,1,0
2025-01-08 14:01:12.776899,225,-73,-307,-1181,7037,-3886,0,1,0
2025-01-08 14:01:12.778151,225,-73,-307,-1181,7037,-3886,0,1,0
2025-01-08 14:01:12.779409,225,-73,-307,-1181,7037,-3886,0,1,0
2025-01-08 14:01:12.780663,208,-80,-298,-1173,7086,-3895,0,1,0
2025-01-08 14:01:12.781917,208,-80,-298,-1173,7086,-3895,0,1,0
2025-01-08 14:01:12.783175,208,-80,-298,-1173,7086,-3895,0,1,0
2025-01-08 14:01:12.784428,199,-86,-287,-1161,7103,-3892,0,1,0
2025-01-08 14:01:12.785682,199,-86,-287,-1161,7103,-3892,0,1,0
2025-01-08 14:01:12.786928,199,-86,-287,-1161,7103,-3892,0,1,0
2025-01-08 14:01:12.788205,196,-95,-276,-1140,7176,-3861,0,1,0
2025-01-08 14:01:12.789459,196,-95,-276,-1140,7176,-3861,0,1,0
2025-01-08 14:01:12.790713,196,-95,-276,-1140,7176,-3861,0,1,0
2025-01-08 14:01:12.791967,196,-95,-276,-1140,7176,-3861,0,1,0
2025-01-08 14:01:12.793225,204,-103,-264,-1157,7245,-3883,0,1,0
2025-01-08 14:01:12.794478,204,-103,-264,-1157,7245,-3883,0,1,0
2025-01-08 14:01:12.795731,204,-103,-264,-1157,7245,-3883,0,1,0
2025-01-08 14:01:12.796988,211,-111,-249,-1174,7206,-3877,0,1,0
2025-01-08 14:01:12.798243,211,-111,-249,-1174,7206,-3877,0,1,0
2025-01-08 14:01:12.799499,211,-111,-249,-1174,7206,-3877,0,1,0
2025-01-08 14:01:12.800753,213,-120,-237,-1199,7243,-3888,0,1,0
2025-01-08 14:01:12.802007,213,-120,-237,-1199,7243,-3888,0,1,0
2025-01-08 14:01:12.803259,213,-120,-237,-1199,7243,-3888,0,1,0
2025-01-08 14:01:12.804513,221,-129,-228,-1141,7302,-3857,0,1,0
2025-01-08 14:01:12.805775,221,-129,-228,-1141,7302,-3857,0,1,0
2025-01-08 14:01:12.807026,221,-129,-228,-1141,7302,-3857,0,1,0
2025-01-08 14:01:12.808284,239,-131,-216,-1117,7328,-3831,0,1,0
2025-01-08 14:01:12.809547,239,-131,-216,-1117,7328,-3831,0,1,0
2025-01-08 14:01:12.810807,239,-131,-216,-1117,7328,-3831,0,1,0
2025-01-08 14:01:12.812095,251,-134,-206,-1175,7251,-3771,0,1,0
2025-01-08 14:01:12.813356,251,-134,-206,-1175,7251,-3771,0,1,0
2025-01-08 14:01:12.814617,251,-134,-206,-1175,7251,-3771,0,1,0
2025-01-08 14:01:12.815879,251,-134,-206,-1175,7251,-3771,0,1,0
2025-01-08 14:01:12.817139,259,-135,-197,-1263,7159,-3704,0,1,0
2025-01-08 14:01:12.818400,259,-135,-197,-1263,7159,-3704,0,1,0
2025-01-08 14:01:12.819660,259,-135,-197,-1263,7159,-3704,0,1,0
2025-01-08 14:01:12.820921,262,-137,-192,-1261,7150,-3689,0,1,0
2025-01-08 14:01:12.822181,262,-137,-192,-1261,7150,-3689,0,1,0
2025-01-08 14:01:12.823431,262,-137,-192,-1261,7150,-3689,0,1,0
2025-01-08 14:01:12.824693,263,-137,-188,-1292,7163,-3667,0,1,0
2025-01-08 14:01:12.825954,263,-137,-188,-1292,7163,-3667,0,1,0
2025-01-08 14:01:12.827214,263,-137,-188,-1292,7163,-3667,0,1,0
2025-01-08 14:01:12.828475,264,-135,-184,-1272,7160,-3727,0,1,0
2025-01-08 14:01:12.829735,264,-135,-184,-1272,7160,-3727,0,1,0
2025-01-08 14:01:12.830996,264,-135,-184,-1272,7160,-3727,0,1,0
2025-01-08 14:01:12.832246,260,-130,-179,-1274,7147,-3760,0,1,0
2025-01-08 14:01:12.833507,260,-130,-179,-1274,7147,-3760,0,1,0
2025-01-08 14:01:12.834768,260,-130,-179,-1274,7147,-3760,0,1,0
2025-01-08 14:01:12.836021,260,-130,-179,-1274,7147,-3760,0,1,0
2025-01-08 14:01:12.837284,253,-127,-175,-1282,7201,-3802,0,1,0
2025-01-08 14:01:12.838545,253,-127,-175,-1282,7201,-3802,0,1,0
2025-01-08 14:01:12.839806,253,-127,-175,-1282,7201,-3802,0,1,0
2025-01-08 14:01:12.841066,253,-125,-171,-1264,7272,-3805,0,1,0
2025-01-08 14:01:12.842326,253,-125,-171,-1264,7272,-3805,0,1,0
2025-01-08 14:01:12.843586,253,-125,-171,-1264,7272,-3805,0,1,0
2025-01-08 14:01:12.844838,255,-122,-170,-1265,7323,-3783,0,1,0
2025-01-08 14:01:12.846099,255,-122,-170,-1265,7323,-3783,0,1,0
2025-01-08 14:01:12.847361,255,-122,-170,-1265,7323,-3783,0,1,0
2025-01-08 14:01:12.848613,257,-121,-166,-1270,7295,-3832,0,1,0
2025-01-08 14:01:12.849875,257,-121,-166,-1270,7295,-3832,0,1,0
2025-01-08 14:01:12.851135,257,-121,-166,-1270,7295,-3832,0,1,0
2025-01-08 14:01:12.852387,255,-112,-168,-1258,7203,-3850,0,1,0
2025-01-08 14:01:12.853649,255,-112,-168,-1258,7203,-3850,0,1,0
2025-01-08 14:01:12.854910,255,-112,-168,-1258,7203,-3850,0,1,0
2025-01-08 14:01:12.856163,251,-106,-166,-1233,7179,-3820,0,1,0
2025-01-08 14:01:12.857434,251,-106,-166,-1233,7179,-3820,0,1,0
2025-01-08 14:01:12.858685,251,-106,-166,-1233,7179,-3820,0,1,0
2025-01-08 14:01:12.859945,251,-106,-166,-1233,7179,-3820,0,1,0
2025-01-08 14:01:12.861205,249,-99,-170,-1258,7136,-3820,0,1,0
2025-01-08 14:01:12.862464,249,-99,-170,-1258,7136,-3820,0,1,0
2025-01-08 14:01:12.863724,249,-99,-170,-1258,7136,-3820,0,1,0
2025-01-08 14:01:12.864984,242,-90,-167,-1252,7109,-3816,0,1,0
2025-01-08 14:01:12.866234,242,-90,-167,-1252,7109,-3816,0,1,0
2025-01-08 14:01:12.867496,242,-90,-167,-1252,7109,-3816,0,1,0
2025-01-08 14:01:12.868755,234,-81,-165,-1229,7111,-3823,0,1,0
2025-01-08 14:01:12.870007,234,-81,-165,-1229,7111,-3823,0,1,0
2025-01-08 14:01:12.871271,234,-81,-165,-1229,7111,-3823,0,1,0
2025-01-08 14:01:12.872532,232,-71,-160,-1252,7080,-3796,0,1,0
2025-01-08 14:01:12.873792,232,-71,-160,-1252,7080,-3796,0,1,0
2025-01-08 14:01:12.875053,232,-71,-160,-1252,7080,-3796,0,1,0
2025-01-08 14:01:12.876305,230,-60,-155,-1281,7088,-3803,0,1,0
2025-01-08 14:01:12.877567,230,-60,-155,-1281,7088,-3803,0,1,0
2025-01-08 14:01:12.878827,230,-60,-155,-1281,7088,-3803,0,1,0
2025-01-08 14:01:12.880080,230,-60,-155,-1281,7088,-3803,0,1,0
2025-01-08 14:01:12.881340,226,-49,-148,-1237,7086,-3810,0,1,0
2025-01-08 14:01:12.882601,226,-49,-148,-1237,7086,-3810,0,1,0
2025-01-08 14:01:12.883860,226,-49,-148,-1237,7086,-3810,0,1,0
2025-01-08 14:01:12.885119,225,-40,-135,-1270,7152,-3822,0,1,0
2025-01-08 14:01:12.886378,225,-40,-135,-1270,7152,-3822,0,1,0
2025-01-08 14:01:12.887637,225,-40,-135,-1270,7152,-3822,0,1,0
2025-01-08 14:01:12.888896,229,-30,-133,-1293,7136,-3817,0,1,0
2025-01-08 14:01:12.890147,229,-30,-133,-1293,7136,-3817,0,1,0
2025-01-08 14:01:12.891407,229,-30,-133,-1293,7136,-3817,0,1,0
2025-01-08 14:01:12.892659,232,-19,-124,-1336,7122,-3841,0,1,0
2025-01-08 14:01:12.893915,232,-19,-124,-1336,7122,-3841,0,1,0
2025-01-08 14:01:12.895184,232,-19,-124,-1336,7122,-3841,0,1,0
2025-01-08 14:01:12.896441,237,-10,-120,-1364,7104,-3857,0,1,0
2025-01-08 14:01:12.897705,237,-10,-120,-1364,7104,-3857,0,1,0
2025-01-08 14:01:12.898965,237,-10,-120,-1364,7104,-3857,0,1,0
2025-01-08 14:01:12.900221,236,0,-112,-1402,7096,-3889,0,1,0
2025-01-08 14:01:12.901483,236,0,-112,-1402,7096,-3889,0,1,0
2025-01-08 14:01:12.902742,236,0,-112,-1402,7096,-3889,0,1,0
2025-01-08 14:01:12.903997,236,0,-112,-1402,7096,-3889,0,1,0
2025-01-08 14:01:12.905257,238,5,-111,-1431,7073,-3863,0,1,0
2025-01-08 14:01:12.906517,238,5,-111,-1431,7073,-3863,0,1,0
2025-01-08 14:01:12.907783,238,5,-111,-1431,7073,-3863,0,1,0
2025-01-08 14:01:12.909044,237,12,-107,-1491,7017,-3856,0,1,0
2025-01-08 14:01:12.910296,237,12,-107,-1491,7017,-3856,0,1,0
2025-01-08 14:01:12.911557,237,12,-107,-1491,7017,-3856,0,1,0
2025-01-08 14:01:12.912809,240,20,-103,-1470,7049,-3898,0,1,0
2025-01-08 14:01:12.914069,240,20,-103,-1470,7049,-3898,0,1,0
2025-01-08 14:01:12.915329,240,20,-103,-1470,7049,-3898,0,1,0
2025-01-08 14:01:12.916582,243,25,-99,-1467,7047,-3913,0,1,0
2025-01-08 14:01:12.917837,243,25,-99,-1467,7047,-3913,0,1,0
2025-01-08 14:01:12.919092,243,25,-99,-1467,7047,-3913,0,1,0
2025-01-08 14:01:12.920348,243,24,-87,-1514,6931,-3956,0,1,0
2025-01-08 14:01:12.921601,243,24,-87,-1514,6931,-3956,0,1,0
2025-01-08 14:01:12.922862,243,24,-87,-1514,6931,-3956,0,1,0
2025-01-08 14:01:12.924135,232,17,-86,-1589,6923,-3990,0,1,0
2025-01-08 14:01:12.925390,232,17,-86,-1589,6923,-3990,0,1,0
2025-01-08 14:01:12.926651,232,17,-86,-1589,6923,-3990,0,1,0
2025-01-08 14:01:12.927913,232,17,-86,-1589,6923,-3990,0,1,0
2025-01-08 14:01:12.929174,225,11,-81,-1648,6960,-4006,0,1,0
2025-01-08 14:01:12.930434,225,11,-81,-1648,6960,-4006,0,1,0
2025-01-08 14:01:12.931695,225,11,-81,-1648,6960,-4006,0,1,0
2025-01-08 14:01:12.932955,217,7,-76,-1637,7014,-4024,0,1,0
2025-01-08 14:01:12.934215,217,7,-76,-1637,7014,-4024,0,1,0
2025-01-08 14:01:12.935476,217,7,-76,-1637,7014,-4024,0,1,0
2025-01-08 14:01:12.936729,220,0,-79,-1630,7077,-3995,0,1,0
2025-01-08 14:01:12.937990,220,0,-79,-1630,7077,-3995,0,1,0
2025-01-08 14:01:12.939250,220,0,-79,-1630,7077,-3995,0,1,0
2025-01-08 14:01:12.940504,222,-5,-83,-1583,7098,-3993,0,1,0
2025-01-08 14:01:12.941617,222,-5,-83,-1583,7098,-3993,0,1,0
2025-01-08 14:01:12.942879,222,-5,-83,-1583,7098,-3993,0,1,0
2025-01-08 14:01:12.944187,225,-12,-89,-1601,7132,-4017,0,1,0
2025-01-08 14:01:12.945450,225,-12,-89,-1601,7132,-4017,0,1,0
2025-01-08 14:01:12.946710,225,-12,-89,-1601,7132,-4017,0,1,0
2025-01-08 14:01:12.947970,225,-12,-89,-1601,7132,-4017,0,1,0
2025-01-08 14:01:12.949230,226,-18,-91,-1601,7146,-4044,0,1,0
2025-01-08 14:01:12.950482,226,-18,-91,-1601,7146,-4044,0,1,0
2025-01-08 14:01:12.951746,226,-18,-91,-1601,7146,-4044,0,1,0
2025-01-08 14:01:12.953007,228,-27,-98,-1545,7155,-4078,0,1,0
2025-01-08 14:01:12.954268,228,-27,-98,-1545,7155,-4078,0,1,0
2025-01-08 14:01:12.955529,228,-27,-98,-1545,7155,-4078,0,1,0
2025-01-08 14:01:12.956784,229,-32,-105,-1550,7163,-4051,0,1,0
2025-01-08 14:01:12.958047,229,-32,-105,-1550,7163,-4051,0,1,0
2025-01-08 14:01:12.959307,229,-32,-105,-1550,7163,-4051,0,1,0
2025-01-08 14:01:12.960561,231,-36,-112,-1513,7187,-4007,0,1,0
2025-01-08 14:01:12.961818,231,-36,-112,-1513,7187,-4007,0,1,0
2025-01-08 14:01:12.963077,231,-36,-112,-1513,7187,-4007,0,1,0
2025-01-08 14:01:12.964332,249,-36,-113,-1542,7269,-3981,0,1,0
2025-01-08 14:01:12.965594,249,-36,-113,-1542,7269,-3981,0,1,0
2025-01-08 14:01:12.966854,249,-36,-113,-1542,7269,-3981,0,1,0
2025-01-08 14:01:12.968108,249,-36,-113,-1542,7269,-3981,0,1,0
2025-01-08 14:01:12.969370,256,-39,-116,-1431,7117,-4031,0,1,0
2025-01-08 14:01:12.970657,256,-39,-116,-1431,7117,-4031,0,1,0
2025-01-08 14:01:12.971931,256,-39,-116,-1431,7117,-4031,0,1,0
2025-01-08 14:01:12.973163,260,-40,-117,-1378,7054,-4034,0,1,0
2025-01-08 14:01:12.974428,260,-40,-117,-1378,7054,-4034,0,1,0
2025-01-08 14:01:12.975684,260,-40,-117,-1378,7054,-4034,0,1,0
2025-01-08 14:01:12.976942,259,-44,-118,-1395,6987,-4073,0,1,0
2025-01-08 14:01:12.978216,259,-44,-118,-1395,6987,-4073,0,1,0
2025-01-08 14:01:12.979472,259,-44,-118,-1395,6987,-4073,0,1,0
2025-01-08 14:01:12.980723,255,-49,-118,-1418,6951,-4116,0,1,0
2025-01-08 14:01:12.981985,255,-49,-118,-1418,6951,-4116,0,1,0
2025-01-08 14:01:12.983241,255,-49,-118,-1418,6951,-4116,0,1,0
2025-01-08 14:01:12.984498,249,-51,-114,-1471,6960,-4083,0,1,0
2025-01-08 14:01:12.985762,249,-51,-114,-1471,6960,-4083,0,1,0
2025-01-08 14:01:12.987024,249,-51,-114,-1471,6960,-4083,0,1,0
2025-01-08 14:01:12.988279,252,-50,-104,-1491,7005,-4024,0,1,0
2025-01-08 14:01:12.989541,252,-50,-104,-1491,7005,-4024,0,1,0
2025-01-08 14:01:12.990807,252,-50,-104,-1491,7005,-4024,0,1,0
2025-01-08 14:01:12.992168,255,-46,-97,-1572,7049,-4015,0,1,0
2025-01-08 14:01:12.993429,255,-46,-97,-1572,7049,-4015,0,1,0
2025-01-08 14:01:12.994687,255,-46,-97,-1572,7049,-4015,0,1,0
2025-01-08 14:01:12.995948,255,-46,-97,-1572,7049,-4015,0,1,0
2025-01-08 14:01:12.997215,263,-38,-88,-1560,7087,-4009,0,1,0
2025-01-08 14:01:12.998477,263,-38,-88,-1560,7087,-4009,0,1,0
2025-01-08 14:01:12.999743,263,-38,-88,-1560,7087,-4009,0,1,0
2025-01-08 14:01:13.001004,272,-28,-80,-1613,7062,-4059,0,1,0
2025-01-08 14:01:13.002263,272,-28,-80,-1613,7062,-4059,0,1,0
2025-01-08 14:01:13.003414,272,-28,-80,-1613,7062,-4059,0,1,0
2025-01-08 14:01:13.004669,274,-28,-62,-1649,7110,-4109,0,1,0
2025-01-08 14:01:13.005926,274,-28,-62,-1649,7110,-4109,0,1,0
2025-01-08 14:01:13.007186,274,-28,-62,-1649,7110,-4109,0,1,0
2025-01-08 14:01:13.008441,279,-23,-54,-1762,7121,-4132,0,1,0
2025-01-08 14:01:13.009704,279,-23,-54,-1762,7121,-4132,0,1,0
2025-01-08 14:01:13.010962,279,-23,-54,-1762,7121,-4132,0,1,0
2025-01-08 14:01:13.012224,276,-17,-44,-1730,7084,-4165,0,1,0
2025-01-08 14:01:13.013287,276,-17,-44,-1730,7084,-4165,0,1,0
2025-01-08 14:01:13.014558,276,-17,-44,-1730,7084,-4165,0,1,0
2025-01-08 14:01:13.015820,276,-17,-44,-1730,7084,-4165,0,1,0
2025-01-08 14:01:13.017089,274,-17,-33,-1743,7002,-4122,0,1,0
2025-01-08 14:01:13.018344,274,-17,-33,-1743,7002,-4122,0,1,0
2025-01-08 14:01:13.019610,274,-17,-33,-1743,7002,-4122,0,1,0
2025-01-08 14:01:13.020872,270,-8,-30,-1732,6987,-4097,0,1,0
2025-01-08 14:01:13.022130,270,-8,-30,-1732,6987,-4097,0,1,0
2025-01-08 14:01:13.023389,270,-8,-30,-1732,6987,-4097,0,1,0
2025-01-08 14:01:13.024651,274,1,-25,-1622,7019,-4129,0,1,0
2025-01-08 14:01:13.025737,274,1,-25,-1622,7019,-4129,0,1,0
2025-01-08 14:01:13.027001,274,1,-25,-1622,7019,-4129,0,1,0
2025-01-08 14:01:13.028379,277,1,-16,-1616,7010,-4153,0,1,0
2025-01-08 14:01:13.029644,277,1,-16,-1616,7010,-4153,0,1,0
2025-01-08 14:01:13.030902,277,1,-16,-1616,7010,-4153,0,1,0
2025-01-08 14:01:13.032186,277,1,-16,-1616,7010,-4153,0,1,0
2025-01-08 14:01:13.033452,280,1,-7,-1642,7012,-4203,0,1,0
2025-01-08 14:01:13.034713,280,1,-7,-1642,7012,-4203,0,1,0
2025-01-08 14:01:13.036079,280,1,-7,-1642,7012,-4203,0,1,0
2025-01-08 14:01:13.037343,280,0,1,-1620,7054,-4257,0,1,0
2025-01-08 14:01:13.038604,280,0,1,-1620,7054,-4257,0,1,0
2025-01-08 14:01:13.039883,280,0,1,-1620,7054,-4257,0,1,0
2025-01-08 14:01:13.041152,275,-2,7,-1610,7059,-4289,0,1,0
2025-01-08 14:01:13.042410,275,-2,7,-1610,7059,-4289,0,1,0
2025-01-08 14:01:13.043673,275,-2,7,-1610,7059,-4289,0,1,0
2025-01-08 14:01:13.044942,272,-8,9,-1603,7075,-4241,0,1,0
2025-01-08 14:01:13.046390,272,-8,9,-1603,7075,-4241,0,1,0
2025-01-08 14:01:13.047650,272,-8,9,-1603,7075,-4241,0,1,0
2025-01-08 14:01:13.048929,270,-8,15,-1566,7056,-4228,0,1,0
2025-01-08 14:01:13.050208,270,-8,15,-1566,7056,-4228,0,1,0
2025-01-08 14:01:13.051488,270,-8,15,-1566,7056,-4228,0,1,0
2025-01-08 14:01:13.052753,271,-9,17,-1511,7104,-4210,0,1,0
2025-01-08 14:01:13.053770,271,-9,17,-1511,7104,-4210,0,1,0
2025-01-08 14:01:13.055033,271,-9,17,-1511,7104,-4210,0,1,0
2025-01-08 14:01:13.056380,272,-7,17,-1488,7031,-4231,0,1,0
2025-01-08 14:01:13.057985,272,-7,17,-1488,7031,-4231,0,1,0
2025-01-08 14:01:13.059351,272,-7,17,-1488,7031,-4231,0,1,0
2025-01-08 14:01:13.060616,267,-6,22,-1529,6990,-4320,0,1,0
2025-01-08 14:01:13.061877,267,-6,22,-1529,6990,-4320,0,1,0
2025-01-08 14:01:13.063138,267,-6,22,-1529,6990,-4320,0,1,0
2025-01-08 14:01:13.064401,260,-5,26,-1507,6999,-4320,0,1,0
2025-01-08 14:01:13.065525,260,-5,26,-1507,6999,-4320,0,1,0
2025-01-08 14:01:13.066794,260,-5,26,-1507,6999,-4320,0,1,0
2025-01-08 14:01:13.068181,260,-5,26,-1507,6999,-4320,0,1,0
2025-01-08 14:01:13.069438,249,-4,32,-1507,6930,-4349,0,1,0
2025-01-08 14:01:13.070697,249,-4,32,-1507,6930,-4349,0,1,0
2025-01-08 14:01:13.071974,249,-4,32,-1507,6930,-4349,0,1,0
2025-01-08 14:01:13.073239,239,-1,39,-1494,6936,-4378,0,1,0
2025-01-08 14:01:13.074497,239,-1,39,-1494,6936,-4378,0,1,0
2025-01-08 14:01:13.075755,239,-1,39,-1494,6936,-4378,0,1,0
2025-01-08 14:01:13.077018,234,3,48,-1489,6862,-4338,0,1,0
2025-01-08 14:01:13.078281,234,3,48,-1489,6862,-4338,0,1,0
2025-01-08 14:01:13.079548,234,3,48,-1489,6862,-4338,0,1,0
2025-01-08 14:01:13.080821,229,7,55,-1457,6831,-4288,0,1,0
2025-01-08 14:01:13.082100,229,7,55,-1457,6831,-4288,0,1,0
2025-01-08 14:01:13.083376,229,7,55,-1457,6831,-4288,0,1,0
2025-01-08 14:01:13.084637,219,11,69,-1477,6807,-4268,0,1,0
2025-01-08 14:01:13.085903,219,11,69,-1477,6807,-4268,0,1,0
2025-01-08 14:01:13.087166,219,11,69,-1477,6807,-4268,0,1,0
2025-01-08 14:01:13.088425,209,13,82,-1428,6827,-4282,0,1,0
2025-01-08 14:01:13.089688,209,13,82,-1428,6827,-4282,0,1,0
2025-01-08 14:01:13.090979,209,13,82,-1428,6827,-4282,0,1,0
2025-01-08 14:01:13.092289,201,21,94,-1459,6868,-4258,0,1,0
2025-01-08 14:01:13.093549,201,21,94,-1459,6868,-4258,0,1,0
2025-01-08 14:01:13.094816,201,21,94,-1459,6868,-4258,0,1,0
2025-01-08 14:01:13.096075,201,21,94,-1459,6868,-4258,0,1,0
2025-01-08 14:01:13.097332,198,25,102,-1468,6923,-4246,0,1,0
2025-01-08 14:01:13.098611,198,25,102,-1468,6923,-4246,0,1,0
2025-01-08 14:01:13.099872,198,25,102,-1468,6923,-4246,0,1,0
2025-01-08 14:01:13.101140,201,29,109,-1475,6960,-4244,0,1,0
2025-01-08 14:01:13.102409,201,29,109,-1475,6960,-4244,0,1,0
2025-01-08 14:01:13.103671,201,29,109,-1475,6960,-4244,0,1,0
2025-01-08 14:01:13.104932,200,33,119,-1521,6951,-4219,0,1,0
2025-01-08 14:01:13.106203,200,33,119,-1521,6951,-4219,0,1,0
2025-01-08 14:01:13.107460,200,33,119,-1521,6951,-4219,0,1,0
2025-01-08 14:01:13.108723,202,39,126,-1523,7016,-4176,0,1,0
2025-01-08 14:01:13.110001,202,39,126,-1523,7016,-4176,0,1,0
2025-01-08 14:01:13.111261,202,39,126,-1523,7016,-4176,0,1,0
2025-01-08 14:01:13.112520,209,41,128,-1552,7142,-4163,0,1,0
2025-01-08 14:01:13.113782,209,41,128,-1552,7142,-4163,0,1,0
2025-01-08 14:01:13.115049,209,41,128,-1552,7142,-4163,0,1,0
2025-01-08 14:01:13.116311,224,50,132,-1534,7134,-4156,0,1,0
2025-01-08 14:01:13.117574,224,50,132,-1534,7134,-4156,0,1,0
2025-01-08 14:01:13.118835,224,50,132,-1534,7134,-4156,0,1,0
2025-01-08 14:01:13.119860,224,50,132,-1534,7134,-4156,0,1,0
2025-01-08 14:01:13.121133,235,52,132,-1462,7134,-4174,0,1,0
2025-01-08 14:01:13.122259,235,52,132,-1462,7134,-4174,0,1,0
2025-01-08 14:01:13.123520,235,52,132,-1462,7134,-4174,0,1,0
2025-01-08 14:01:13.124786,247,56,133,-1499,7132,-4241,0,1,0
2025-01-08 14:01:13.125876,247,56,133,-1499,7132,-4241,0,1,0
2025-01-08 14:01:13.127146,247,56,133,-1499,7132,-4241,0,1,0
2025-01-08 14:01:13.128419,255,54,131,-1541,7128,-4269,0,1,0
2025-01-08 14:01:13.129678,255,54,131,-1541,7128,-4269,0,1,0
2025-01-08 14:01:13.130939,255,54,131,-1541,7128,-4269,0,1,0
2025-01-08 14:01:13.132210,255,54,131,-1541,7128,-4269,0,1,0
2025-01-08 14:01:13.133365,264,52,131,-1531,7074,-4264,0,1,0
2025-01-08 14:01:13.134624,264,52,131,-1531,7074,-4264,0,1,0
2025-01-08 14:01:13.135892,264,52,131,-1531,7074,-4264,0,1,0
2025-01-08 14:01:13.137151,274,52,133,-1560,7041,-4261,0,1,0
2025-01-08 14:01:13.138414,274,52,133,-1560,7041,-4261,0,1,0
2025-01-08 14:01:13.139688,274,52,133,-1560,7041,-4261,0,1,0
2025-01-08 14:01:13.140958,279,51,138,-1555,7043,-4235,0,1,0
2025-01-08 14:01:13.142225,279,51,138,-1555,7043,-4235,0,1,0
2025-01-08 14:01:13.143496,279,51,138,-1555,7043,-4235,0,1,0
2025-01-08 14:01:13.144774,293,50,145,-1542,7000,-4232,0,1,0
2025-01-08 14:01:13.146036,293,50,145,-1542,7000,-4232,0,1,0
2025-01-08 14:01:13.147310,293,50,145,-1542,7000,-4232,0,1,0
2025-01-08 14:01:13.148596,305,52,152,-1529,6958,-4289,0,1,0
2025-01-08 14:01:13.149863,305,52,152,-1529,6958,-4289,0,1,0
2025-01-08 14:01:13.151123,305,52,152,-1529,6958,-4289,0,1,0
2025-01-08 14:01:13.152526,318,46,158,-1521,6894,-4308,0,1,0
2025-01-08 14:01:13.153795,318,46,158,-1521,6894,-4308,0,1,0
2025-01-08 14:01:13.155063,318,46,158,-1521,6894,-4308,0,1,0
2025-01-08 14:01:13.156488,326,44,171,-1552,6807,-4324,0,1,0
2025-01-08 14:01:13.157757,326,44,171,-1552,6807,-4324,0,1,0
2025-01-08 14:01:13.159024,326,44,171,-1552,6807,-4324,0,1,0
2025-01-08 14:01:13.160472,332,39,186,-1566,6744,-4343,0,1,0
2025-01-08 14:01:13.161741,332,39,186,-1566,6744,-4343,0,1,0
2025-01-08 14:01:13.163002,332,39,186,-1566,6744,-4343,0,1,0
2025-01-08 22:23:25.282011,5,2,7,-939,8192,-669,1,0,0
2025-01-08 22:23:25.283258,5,2,7,-939,8192,-669,1,0,0
2025-01-08 22:23:25.284520,7,2,7,-960,8173,-672,1,0,0
2025-01-08 22:23:25.285769,7,2,7,-960,8173,-672,1,0,0
2025-01-08 22:23:25.287034,7,2,7,-960,8173,-672,1,0,0
2025-01-08 22:23:25.288286,3,2,4,-917,8154,-675,1,0,0
2025-01-08 22:23:25.289541,3,2,4,-917,8154,-675,1,0,0
2025-01-08 22:23:25.290794,3,2,4,-917,8154,-675,1,0,0
2025-01-08 22:23:25.292047,3,1,6,-914,8177,-675,1,0,0
2025-01-08 22:23:25.293299,3,1,6,-914,8177,-675,1,0,0
2025-01-08 22:23:25.294576,3,1,6,-914,8177,-675,1,0,0
2025-01-08 22:23:25.295818,2,4,9,-936,8159,-657,1,0,0
2025-01-08 22:23:25.297080,2,4,9,-936,8159,-657,1,0,0
2025-01-08 22:23:25.298339,2,4,9,-936,8159,-657,1,0,0
2025-01-08 22:23:25.299589,2,4,9,-936,8159,-657,1,0,0
2025-01-08 22:23:25.300851,4,2,10,-889,8166,-668,1,0,0
2025-01-08 22:23:25.302112,4,2,10,-889,8166,-668,1,0,0
2025-01-08 22:23:25.303373,4,2,10,-889,8166,-668,1,0,0
2025-01-08 22:23:25.304623,4,2,7,-927,8179,-658,1,0,0
2025-01-08 22:23:25.305878,4,2,7,-927,8179,-658,1,0,0
2025-01-08 22:23:25.307133,4,2,7,-927,8179,-658,1,0,0
2025-01-08 22:23:25.308396,4,1,7,-914,8158,-654,1,0,0
2025-01-08 22:23:25.309657,4,1,7,-914,8158,-654,1,0,0
2025-01-08 22:23:25.310916,4,1,7,-914,8158,-654,1,0,0
2025-01-08 22:23:25.312167,3,7,7,-923,8183,-638,1,0,0
2025-01-08 22:23:25.313420,3,7,7,-923,8183,-638,1,0,0
2025-01-08 22:23:25.314683,3,7,7,-923,8183,-638,1,0,0
2025-01-08 22:23:25.315935,4,3,9,-939,8166,-666,1,0,0
2025-01-08 22:23:25.317188,4,3,9,-939,8166,-666,1,0,0
2025-01-08 22:23:25.318450,4,3,9,-939,8166,-666,1,0,0
2025-01-08 22:23:25.319700,1,2,4,-906,8185,-701,1,0,0
